<Bundle xmlns="http://hl7.org/fhir">
    <id value="2-1-MedicationPlan-Analyzer"/>
    <meta>
        <lastUpdated value="2020-03-27T12:00:00.000+00:00"/>
        <profile value="http://chmed20af.emediplan.ch/fhir/StructureDefinition/chmed20af-mp-bundle"/>
    </meta>
    <identifier>
        <system value="urn:ietf:rfc:3986"/>
        <value value="urn:uuid:550e8400-e29b-11d4-a716-446655440022"/>
    </identifier>
    <type value="document"/>
    <timestamp value="2020-03-27T12:00:00.000+00:00"/>
    <entry>
        <fullUrl value="http://test.fhir.ch/r4/Composition/2-1-Analyzer"/>
        <resource>
            <Composition>
                <id value="2-1-Analyzer"/>
                <language value="de-CH"/>
                <extension url="http://fhir.ch/ig/ch-core/StructureDefinition/ch-ext-epr-setid">
                    <valueIdentifier>
                        <system value="urn:ietf:rfc:3986"/>
                        <value value="urn:uuid:550e8400-e29b-11d4-a716-446655440022"/>
                    </valueIdentifier>
                </extension>
                <extension url="http://fhir.ch/ig/ch-core/StructureDefinition/ch-ext-epr-versionnumber">
                    <valueUnsignedInt value="1"/>
                </extension>
                <extension url="http://fhir.ch/ig/ch-core/StructureDefinition/ch-ext-epr-informationrecipient">
                    <valueReference>
                        <reference value="Patient/MonikaWegmuellerRecipient"/>
                    </valueReference>
                </extension>
                <identifier>
                    <system value="urn:ietf:rfc:3986"/>
                    <value value="urn:uuid:550e8400-e29b-11d4-a716-446655440022"/>
                </identifier>
                <status value="final"/>
                <type>
                    <coding>
                        <system value="http://snomed.info/sct"/>
                        <code value="721912009"/>
                        <display value="Medication summary document (record artifact)"/>
                    </coding>
                </type>
                <subject>
                    <reference value="Patient/MonikaWegmueller"/>
                </subject>
                <date value="2020-03-27T12:00:00.000+00:00"/>
                <author>
                    <reference value="Practitioner/FamilienHausarzt"/>
                </author>
                <title value="Medikationsplan"/>
                <confidentiality value="N">
                    <extension url="http://fhir.ch/ig/ch-core/StructureDefinition/ch-ext-epr-confidentialitycode">
                        <valueCodeableConcept>
                            <coding>
                                <system value="http://snomed.info/sct"/>
                                <code value="17621005"/>
                                <display value="Normally accessible"/>
                            </coding>
                        </valueCodeableConcept>
                    </extension>
                </confidentiality>
                <custodian>
                    <reference value="Organization/Apotheke"/>
                </custodian>
                <section>
                    <title value="Medikamentenliste"/>
                    <code>
                        <coding>
                            <system value="http://loinc.org"/>
                            <code value="10160-0"/>
                            <display value="History of medication use"/>
                        </coding>
                    </code>
                    <text>
                        <status value="additional"/>
                        <div xmlns="http://www.w3.org/1999/xhtml"> Medikamentenliste </div>
                    </text>
                    <entry>
                        <reference value="MedicationStatement/2-1-MedStatTriatec"/>
                    </entry>
                    <entry>
                        <reference value="MedicationDispense/2-1-MedDispTriatec"/>
                    </entry>
                </section>
            </Composition>
        </resource>
    </entry>
    <entry>
        <fullUrl value="http://test.fhir.ch/r4/Patient/MonikaWegmueller"/>
        <resource>
            <Patient>
                <id value="MonikaWegmueller"/>
                <identifier>
                    <type>
                        <coding>
                            <system value="http://terminology.hl7.org/CodeSystem/v2-0203"/>
                            <code value="MR"/>
                        </coding>
                    </type>
                    <system value="urn:oid:2.999"/>
                    <value value="11111111"/>
                </identifier>
                <name>
                    <family value="Wegm端ller"/>
                    <given value="Monika"/>
                </name>
                <gender value="female"/>
                <birthDate value="1943-05-15"/>
                <address>
                    <line value="Wiesenstr. 12"/>
                    <city value="Z端rich"/>
                    <postalCode value="8003"/>
                    <country value="CH"/>
                </address>
            </Patient>
        </resource>
    </entry>
    <entry>
        <fullUrl value="http://test.fhir.ch/r4/Practitioner/FamilienHausarzt"/>
        <resource>
            <Practitioner>
                <id value="FamilienHausarzt"/>
                <identifier>
                    <system value="urn:oid:2.51.1.3"/>
                    <value value="7601000234438"/>
                </identifier>
                <name>
                    <family value="Hausarzt"/>
                    <given value="Familien"/>
                </name>
            </Practitioner>
        </resource>
    </entry>
    <entry>
        <fullUrl value="http://test.fhir.ch/r4/Organization/Apotheke"/>
        <resource>
            <Organization>
                <id value="Apotheke"/>
                <identifier>
                    <system value="urn:oid:2.51.1.3"/>
                    <value value="7601000234000"/>
                </identifier>
                <name value="Apotheke"/>
            </Organization>
        </resource>
    </entry>
    <entry>
        <fullUrl value="http://test.fhir.ch/r4/Patient/MonikaWegmuellerRecipient"/>
        <resource>
            <Patient>
                <id value="MonikaWegmuellerRecipient"/>
                <name>
                    <family value="Wegm端ller"/>
                    <given value="Monika"/>
                </name>
                <address>
                    <line value="Wiesenstr. 12"/>
                    <city value="Z端rich"/>
                    <postalCode value="8003"/>
                    <country value="CH"/>
                </address>
            </Patient>
        </resource>
    </entry>
    <entry>
        <fullUrl value="http://test.fhir.ch/r4/MedicationStatement/1-2-MedStatTriatec"/>
        <resource>
            <MedicationStatement>
                <id value="1-2-MedStatTriatec"/>
                <contained>
                    <Medication>
                        <id value="med"/>
                        <code>
                            <coding>
                                <system value="urn:oid:2.51.1.1"/>
                                <code value="7680538751228"/>
                                <display value="TRIATEC Tabl 2.5 mg 100 Stk"/>
                            </coding>
                            <text value="TRIATEC Tabl 2.5 mg"/>
                        </code>
                        <form>
                            <coding>
                                <system value="urn:oid:0.4.0.127.0.16.1.1.2.1"/>
                                <code value="10219000"/>
                                <display value="Tablet"/>
                            </coding>
                        </form>
                        <amount>
                            <numerator>
                                <value value="20"/>
                            </numerator>
                            <denominator>
                                <value value="1"/>
                            </denominator>
                        </amount>
                        <ingredient>
                            <itemCodeableConcept>
                                <coding>
                                    <system value="http://snomed.info/sct"/>
                                    <code value="386872004"/>
                                    <display value="Ramipril (substance)"/>
                                </coding>
                                <text value="Ramipril"/>
                            </itemCodeableConcept>
                            <strength>
                                <numerator>
                                    <value value="2.5"/>
                                    <unit value="mg"/>
                                </numerator>
                                <denominator>
                                    <value value="1"/>
                                    <unit value="1"/>
                                </denominator>
                            </strength>
                        </ingredient>
                    </Medication>
                </contained>
                <identifier>
                    <system value="urn:ietf:rfc:3986"/>
                    <value value="urn:uuid:550e8400-e29b-11d4-a716-446655440022"/>
                </identifier>
                <status value="completed"/>
                <category>
                    <coding>
                        <system value="http://www.whocc.no/atc"/>
                        <code value="C09AA05"/>
                    </coding>
                    <text value="Kardiovaskul辰res System"/>
                </category>
                <medicationReference>
                    <reference value="#med"/>
                </medicationReference>
                <subject>
                    <reference value="Patient/MonikaWegmueller"/>
                </subject>
                <derivedFrom>
                    <reference value="MedicationStatement/1-1-MedStatTriatec"/>
                </derivedFrom>
                <reasonCode>
                    <text value="Bluthochdruck"/>
                </reasonCode>
                <note>
                    <text value="-"/>
                </note>
                <dosage>
                    <timing>
                        <repeat>
                            <boundsPeriod>
                                <start value="2011-11-29"/>
                            </boundsPeriod>
                            <when value="ACM"/>
                        </repeat>
                    </timing>
                    <route>
                        <coding>
                            <system value="urn:oid:0.4.0.127.0.16.1.1.2.1"/>
                            <code value="20053000"/>
                            <display value="Oral use"/>
                        </coding>
                    </route>
                    <doseAndRate>
                        <doseQuantity>
                            <value value="0.5"/>
                        </doseQuantity>
                    </doseAndRate>
                </dosage>
                <dosage>
                    <text value="Morgens 1/2 Tablette nehmen"/>
                </dosage>
            </MedicationStatement>
        </resource>
    </entry>
    <entry>
        <fullUrl value="http://test.fhir.ch/r4/MedicationDispense/1-2-MedDispTriatec"/>
        <resource>
            <MedicationDispense>
                <id value="1-2-MedDispTriatec"/>
                <contained>
                    <Medication>
                        <id value="med"/>
                        <code>
                            <coding>
                                <system value="urn:oid:2.51.1.1"/>
                                <code value="7680538751228"/>
                                <display value="TRIATEC Tabl 2.5 mg 100 Stk"/>
                            </coding>
                            <text value="TRIATEC Tabl 2.5 mg"/>
                        </code>
                        <form>
                            <coding>
                                <system value="urn:oid:0.4.0.127.0.16.1.1.2.1"/>
                                <code value="10219000"/>
                                <display value="Tablet"/>
                            </coding>
                        </form>
                        <amount>
                            <numerator>
                                <value value="20"/>
                            </numerator>
                            <denominator>
                                <value value="1"/>
                            </denominator>
                        </amount>
                        <ingredient>
                            <itemCodeableConcept>
                                <coding>
                                    <system value="http://snomed.info/sct"/>
                                    <code value="386872004"/>
                                    <display value="Ramipril (substance)"/>
                                </coding>
                                <text value="Ramipril"/>
                            </itemCodeableConcept>
                            <strength>
                                <numerator>
                                    <value value="2.5"/>
                                    <unit value="mg"/>
                                </numerator>
                                <denominator>
                                    <value value="1"/>
                                    <unit value="1"/>
                                </denominator>
                            </strength>
                        </ingredient>
                    </Medication>
                </contained>
                <identifier>
                    <system value="urn:ietf:rfc:3986"/>
                    <value value="urn:uuid:488bd23a-20c6-11e6-b67b-9e71128cae77"/>
                </identifier>
                <status value="completed"/>
                <medicationReference>
                    <reference value="#med"/>
                </medicationReference>
                <subject>
                    <reference value="Patient/MonikaWegmueller"/>
                </subject>
                <quantity>
                    <value value="1"/>
                </quantity>
                <note>
                    <text value="-"/>
                </note>
                <dosageInstruction>
                    <timing>
                        <repeat>
                            <boundsPeriod>
                                <start value="2011-11-29"/>
                            </boundsPeriod>
                            <when value="ACM"/>
                        </repeat>
                    </timing>
                    <route>
                        <coding>
                            <system value="urn:oid:0.4.0.127.0.16.1.1.2.1"/>
                            <code value="20053000"/>
                            <display value="Oral use"/>
                        </coding>
                    </route>
                    <doseAndRate>
                        <doseQuantity>
                            <value value="0.5"/>
                        </doseQuantity>
                    </doseAndRate>
                </dosageInstruction>
                <dosageInstruction>
                    <text value="Morgens 1/2 Tablette nehmen"/>
                </dosageInstruction>
            </MedicationDispense>
        </resource>
    </entry>
    <!-- derivedFrom MedicationStatement -->
    <entry>
        <fullUrl value="http://test.fhir.ch/r4/MedicationStatement/1-1-MedStatTriatec"/>
        <resource>
            <MedicationStatement>
                <id value="1-1-MedStatTriatec"/>
                <contained>
                    <Medication>
                        <id value="med"/>
                        <code>
                            <extension url="http://hl7.org/fhir/StructureDefinition/narrativeLink">
                                <valueUrl value="#mtp.1.brandedmedication"/>
                            </extension>
                            <coding>
                                <system value="urn:oid:2.51.1.1"/>
                                <code value="7680538751228"/>
                                <display value="TRIATEC Tabl 2.5 mg 100 Stk"/>
                            </coding>
                            <text value="TRIATEC Tabl 2.5 mg"/>
                        </code>
                        <form>
                            <coding>
                                <system value="urn:oid:0.4.0.127.0.16.1.1.2.1"/>
                                <code value="10219000"/>
                                <display value="Tablet"/>
                            </coding>
                        </form>
                        <amount>
                            <numerator>
                                <value value="20"/>
                            </numerator>
                            <denominator>
                                <value value="1"/>
                            </denominator>
                        </amount>
                        <ingredient>
                            <itemCodeableConcept>
                                <coding>
                                    <system value="http://snomed.info/sct"/>
                                    <code value="386872004"/>
                                    <display value="Ramipril (substance)"/>
                                </coding>
                                <text value="Ramipril"/>
                            </itemCodeableConcept>
                            <strength>
                                <numerator>
                                    <value value="2.5"/>
                                    <unit value="mg"/>
                                </numerator>
                                <denominator>
                                    <value value="1"/>
                                    <unit value="1"/>
                                </denominator>
                            </strength>
                        </ingredient>
                    </Medication>
                </contained>
                <identifier>
                    <system value="urn:ietf:rfc:3986"/>
                    <value value="urn:uuid:550e8400-e29b-11d4-a716-446655440000"/>
                </identifier>
                <status value="completed"/>
                <category>
                    <coding>
                        <system value="http://www.whocc.no/atc"/>
                        <code value="C09AA05"/>
                    </coding>
                    <text value="Kardiovaskul辰res System"/>
                </category>
                <medicationReference>
                    <reference value="#med"/>
                </medicationReference>
                <subject>
                    <reference value="Patient/MonikaWegmueller"/>
                </subject>
                <reasonCode>
                    <text value="Bluthochdruck"/>
                </reasonCode>
                <note>
                    <text value="-"/>
                </note>
                <dosage>
                    <timing>
                        <repeat>
                            <boundsPeriod>
                                <start value="2011-11-29"/>
                            </boundsPeriod>
                            <when value="ACM"/>
                        </repeat>
                    </timing>
                    <route>
                        <coding>
                            <system value="urn:oid:0.4.0.127.0.16.1.1.2.1"/>
                            <code value="20053000"/>
                            <display value="Oral use"/>
                        </coding>
                    </route>
                    <doseAndRate>
                        <doseQuantity>
                            <value value="0.5"/>
                        </doseQuantity>
                    </doseAndRate>
                </dosage>
                <dosage>
                    <text value="Morgens 1/2 Tablette nehmen"/>
                </dosage>
            </MedicationStatement>
        </resource>
    </entry>
</Bundle>