<Bundle xmlns="http://hl7.org/fhir">
    <id value="2-7-ConsolidatedMedicationCard"/>
    <meta>
        <profile value="http://chmed20af.emediplan.ch/fhir/StructureDefinition/chmed20af-analyzer-bundle"/>
    </meta>
    <identifier>
        <system value="http://emediplan.ch/chmed20af/id"/>
        <value value="26d3dff7-ab05-4737-a49c-5eccd3357777"/>
    </identifier>
    <type value="document"/>
    <timestamp value="2020-04-03T12:00:00.000+00:00"/>
    <entry>
        <fullUrl value="http://test.fhir.ch/r4/Composition/2-7-Analyzer"/>
        <resource>
            <Composition>
                <id value="2-7-Analyzer"/>
                <meta>
                    <profile value="http://chmed20af.emediplan.ch/fhir/StructureDefinition/chmed20af-analyzer-composition"/>
                </meta>
                <status value="final"/>
                <type>
                    <coding>
                        <system value="http://snomed.info/sct"/>
                        <code value="721912009"/>
                        <display value="Medication summary document (record artifact)"/>
                    </coding>
                </type>
                <subject>
                    <reference value="Patient/MonikaWegmueller"/>
                </subject>
                <date value="2020-04-03T12:00:00.000+00:00"/>
                <author>
                    <reference value="Device/Analyzer"/>
                </author>
                <title value="Medikationsplan"/>
                <section>
                    <entry>
                        <reference value="MedicationStatement/2-2-MedStatTriatec-Analyzer"/> <!-- gestopptes Medi -->
                    </entry>
                    <entry>
                        <reference value="MedicationStatement/2-7-MedStatBeloczok-Analyzer"/> <!-- abgegebenes Medi -->
                    </entry>
                    <entry>
                        <reference value="MedicationStatement/2-7-MedStatNorvasc-Analyzer"/> <!-- verschriebenes Medi -->
                    </entry>
                </section>
            </Composition>
        </resource>
    </entry>
    <entry>
        <fullUrl value="http://test.fhir.ch/r4/Patient/MonikaWegmueller"/>
        <resource>
            <Patient>
                <id value="MonikaWegmueller"/>
                <meta>
                    <profile value="http://chmed20af.emediplan.ch/fhir/StructureDefinition/chmed20af-analyzer-patient"/>
                </meta>
                <identifier>
                    <type>
                        <coding>
                            <system value="http://terminology.hl7.org/CodeSystem/v2-0203"/>
                            <code value="MR"/>
                        </coding>
                    </type>
                    <system value="urn:oid:2.999"/>
                    <value value="11111111"/>
                </identifier>
                <name>
                    <family value="Wegmüller"/>
                    <given value="Monika"/>
                </name>
                <gender value="female"/>
                <birthDate value="1943-05-15"/>
                <address>
                    <line value="Wiesenstr. 12"/>
                    <city value="Zürich"/>
                    <postalCode value="8003"/>
                    <country value="CH"/>
                </address>
            </Patient>
        </resource>
    </entry>
    <entry>
        <fullUrl value="http://test.fhir.ch/r4/Practitioner/FamilienHausarzt"/>
        <resource>
            <Practitioner>
                <id value="FamilienHausarzt"/>
                <meta>
                    <profile value="http://chmed20af.emediplan.ch/fhir/StructureDefinition/chmed20af-analyzer-practitioner"/>
                </meta>
                <identifier>
                    <system value="urn:oid:2.51.1.3"/>
                    <value value="7601000234438"/>
                </identifier>
                <name>
                    <family value="Hausarzt"/>
                    <given value="Familien"/>
                </name>
            </Practitioner>
        </resource>
    </entry>
    <entry>
        <fullUrl value="http://test.fhir.ch/r4/Device/Analyzer"/>
        <resource>
            <Device>
                <id value="Analyzer"/>
                <meta>
                    <profile value="http://hl7.org/fhir/StructureDefinition/Device"/>
                </meta>
                <deviceName>
                    <name value="Analyzer"/>
                    <type value="user-friendly-name"/>
                </deviceName>
            </Device>
        </resource>
    </entry>
    
    <!-- Section entry 1: MedicationStatement -->
    <entry>
        <fullUrl value="http://test.fhir.ch/r4/MedicationStatement/2-2-MedStatTriatec-Analyzer"/>
        <resource>
            <MedicationStatement>
                <id value="2-2-MedStatTriatec-Analyzer"/>
                <meta>
                    <profile value="http://chmed20af.emediplan.ch/fhir/StructureDefinition/chmed20af-analyzer-medicationstatement"/>
                </meta>
                <contained>
                    <Medication>
                        <id value="med"/>
                        <code>
                            <coding>
                                <system value="urn:oid:2.51.1.1"/>
                                <code value="7680538751228"/>
                                <display value="TRIATEC Tabl 2.5 mg 100 Stk"/>
                            </coding>
                            <text value="TRIATEC Tabl 2.5 mg"/>
                        </code>
                        <form>
                            <coding>
                                <system value="urn:oid:0.4.0.127.0.16.1.1.2.1"/>
                                <code value="10219000"/>
                                <display value="Tablet"/>
                            </coding>
                        </form>
                        <amount>
                            <numerator>
                                <value value="20"/>
                            </numerator>
                            <denominator>
                                <value value="1"/>
                            </denominator>
                        </amount>
                        <ingredient>
                            <itemCodeableConcept>
                                <coding>
                                    <system value="http://snomed.info/sct"/>
                                    <code value="386872004"/>
                                    <display value="Ramipril (substance)"/>
                                </coding>
                                <text value="Ramipril"/>
                            </itemCodeableConcept>
                            <strength>
                                <numerator>
                                    <value value="2.5"/>
                                    <unit value="mg"/>
                                </numerator>
                                <denominator>
                                    <value value="1"/>
                                    <unit value="1"/>
                                </denominator>
                            </strength>
                        </ingredient>
                    </Medication>
                </contained>
                <status value="completed"/>
                <category>
                    <coding>
                        <system value="http://www.whocc.no/atc"/>
                        <code value="C"/>
                        <display value="Kardiovaskuläres System"/>
                    </coding>
                </category>
                <medicationReference>
                    <reference value="#med"/>
                </medicationReference>
                <subject>
                    <reference value="Patient/MonikaWegmueller"/>
                </subject>
                <informationSource>
                    <reference value="Practitioner/FamilienHausarzt"/>
                </informationSource>
                <!-- History -->
                <derivedFrom>
                    <reference value="MedicationStatement/1-1-MedStatTriatec-Analyzer"/> <!-- 1-1 Entscheid (Triatec) -->
                </derivedFrom>
                <derivedFrom>
                    <reference value="Observation/1-2-History"/> <!-- Aenderung von Entscheid zu Abgabe (Triatec) -->
                </derivedFrom>
                <derivedFrom>
                    <reference value="MedicationDispense/1-2-MedDispTriatec-Analyzer"/> <!-- 1-2 Abgabe -->
                </derivedFrom>
                <derivedFrom>
                    <reference value="Observation/2-2-History"/> <!-- Aenderung von Abgabe zu Kommentar -->
                </derivedFrom>
                <derivedFrom>
                    <reference value="Observation/2-2-PharmAdvTriatec-Analyzer"/> <!-- 1-2 Kommentar: Medikament absetzen (Triatec) -->
                </derivedFrom>
                <reasonCode>
                    <text value="Bluthochdruck"/>
                </reasonCode>
                <note>
                    <text value="-"/>
                </note>
                <dosage>
                    <timing>
                        <repeat>
                            <boundsPeriod>
                                <start value="2011-11-29"/>
                            </boundsPeriod>
                            <when value="ACM"/>
                        </repeat>
                    </timing>
                    <route>
                        <coding>
                            <system value="urn:oid:0.4.0.127.0.16.1.1.2.1"/>
                            <code value="20053000"/>
                            <display value="Oral use"/>
                        </coding>
                    </route>
                    <doseAndRate>
                        <doseQuantity>
                            <value value="0.5"/>
                        </doseQuantity>
                    </doseAndRate>
                </dosage>
                <dosage>
                    <text value="Morgens 1/2 Tablette nehmen"/>
                </dosage>
            </MedicationStatement>
        </resource>
    </entry>

    <!-- Section entry 1: Reference from MedicationStatement.derivedFrom (History) -->
    <entry>
        <fullUrl value="http://test.fhir.ch/r4/MedicationStatement/1-1-MedStatTriatec-Analyzer"/>
        <resource>
            <MedicationStatement>
                <id value="1-1-MedStatTriatec-Analyzer"/>
                <meta>
                    <profile value="http://chmed20af.emediplan.ch/fhir/StructureDefinition/chmed20af-analyzer-medicationstatement"/>
                </meta>
                <contained>
                    <Medication>
                        <id value="med"/>
                        <code>
                            <coding>
                                <system value="urn:oid:2.51.1.1"/>
                                <code value="7680538751228"/>
                                <display value="TRIATEC Tabl 2.5 mg 100 Stk"/>
                            </coding>
                            <text value="TRIATEC Tabl 2.5 mg"/>
                        </code>
                        <form>
                            <coding>
                                <system value="urn:oid:0.4.0.127.0.16.1.1.2.1"/>
                                <code value="10219000"/>
                                <display value="Tablet"/>
                            </coding>
                        </form>
                        <amount>
                            <numerator>
                                <value value="20"/>
                            </numerator>
                            <denominator>
                                <value value="1"/>
                            </denominator>
                        </amount>
                        <ingredient>
                            <itemCodeableConcept>
                                <coding>
                                    <system value="http://snomed.info/sct"/>
                                    <code value="386872004"/>
                                    <display value="Ramipril (substance)"/>
                                </coding>
                                <text value="Ramipril"/>
                            </itemCodeableConcept>
                            <strength>
                                <numerator>
                                    <value value="2.5"/>
                                    <unit value="mg"/>
                                </numerator>
                                <denominator>
                                    <value value="1"/>
                                    <unit value="1"/>
                                </denominator>
                            </strength>
                        </ingredient>
                    </Medication>
                </contained>
                <status value="completed"/>
                <category>
                    <coding>
                        <system value="http://www.whocc.no/atc"/>
                        <code value="C"/>
                        <display value="Kardiovaskuläres System"/>
                    </coding>
                </category>
                <medicationReference>
                    <reference value="#med"/>
                </medicationReference>
                <subject>
                    <reference value="Patient/MonikaWegmueller"/>
                </subject>
                <informationSource>
                    <reference value="Practitioner/FamilienHausarzt"/>
                </informationSource>
                <reasonCode>
                    <text value="Bluthochdruck"/>
                </reasonCode>
                <note>
                    <text value="-"/>
                </note>
                <dosage>
                    <timing>
                        <repeat>
                            <boundsPeriod>
                                <start value="2011-11-29"/>
                            </boundsPeriod>
                            <when value="ACM"/>
                        </repeat>
                    </timing>
                    <route>
                        <coding>
                            <system value="urn:oid:0.4.0.127.0.16.1.1.2.1"/>
                            <code value="20053000"/>
                            <display value="Oral use"/>
                        </coding>
                    </route>
                    <doseAndRate>
                        <doseQuantity>
                            <value value="0.5"/>
                        </doseQuantity>
                    </doseAndRate>
                </dosage>
                <dosage>
                    <text value="Morgens 1/2 Tablette nehmen"/>
                </dosage>
            </MedicationStatement>
        </resource>
    </entry>

    <!-- Section entry 1: Reference from MedicationStatement.derivedFrom (History) -->
    <entry>
        <fullUrl value="http://test.fhir.ch/r4/Observation/1-2-History"/>
        <resource>
            <Observation>
                <id value="1-2-History"/>
                <meta>
                    <profile value="http://chmed20af.emediplan.ch/fhir/StructureDefinition/chmed20af-analyzer-observationhistory"/>
                </meta>
                <status value="final"/>
                <code>
                    <coding>
                        <system value="urn:oid:1.3.6.1.4.1.19376.1.9.2.1"/>
                        <code value="OK"/>
                    </coding>
                </code>
                <valueCodeableConcept>
                    <coding>
                        <system value="http://chmed20af.emediplan.ch/fhir/CodeSystem/chmed20af-codesystem-history-changes"/>
                        <code value="sameMedication"/>
                    </coding>
                </valueCodeableConcept>
            </Observation>
        </resource>
    </entry>

    <!-- Section entry 1: Reference from MedicationStatement.derivedFrom (History) -->
    <entry>
        <fullUrl value="http://test.fhir.ch/r4/MedicationDispense/1-2-MedDispTriatec-Analyzer"/>
        <resource>
            <MedicationDispense>
                <id value="1-2-MedDispTriatec-Analyzer"/>
                <meta>
                    <profile value="http://chmed20af.emediplan.ch/fhir/StructureDefinition/chmed20af-analyzer-medicationdispense"/>
                </meta>
                <contained>
                    <Medication>
                        <id value="med"/>
                        <code>
                            <coding>
                                <system value="urn:oid:2.51.1.1"/>
                                <code value="7680538751228"/>
                                <display value="TRIATEC Tabl 2.5 mg 100 Stk"/>
                            </coding>
                            <text value="TRIATEC Tabl 2.5 mg"/>
                        </code>
                        <form>
                            <coding>
                                <system value="urn:oid:0.4.0.127.0.16.1.1.2.1"/>
                                <code value="10219000"/>
                                <display value="Tablet"/>
                            </coding>
                        </form>
                        <amount>
                            <numerator>
                                <value value="20"/>
                            </numerator>
                            <denominator>
                                <value value="1"/>
                            </denominator>
                        </amount>
                        <ingredient>
                            <itemCodeableConcept>
                                <coding>
                                    <system value="http://snomed.info/sct"/>
                                    <code value="386872004"/>
                                    <display value="Ramipril (substance)"/>
                                </coding>
                                <text value="Ramipril"/>
                            </itemCodeableConcept>
                            <strength>
                                <numerator>
                                    <value value="2.5"/>
                                    <unit value="mg"/>
                                </numerator>
                                <denominator>
                                    <value value="1"/>
                                    <unit value="1"/>
                                </denominator>
                            </strength>
                        </ingredient>
                    </Medication>
                </contained>
                <extension url="http://fhir.ch/ig/ch-emed/StructureDefinition/ch-emed-ext-treatmentplan">
                    <extension url="id">
                        <valueIdentifier>
                            <system value="urn:ietf:rfc:3986"/>
                            <value value="urn:uuid:c9f758a1-296c-4710-84d4-e181db8c7478"/>
                        </valueIdentifier>
                    </extension>
                    <extension url="externalDocumentId">
                        <valueIdentifier>
                            <system value="urn:ietf:rfc:3986"/>
                            <value value="urn:uuid:c9f758a1-296c-4710-84d4-e181db8c7478"/>
                        </valueIdentifier>
                    </extension>
                </extension>
                <status value="completed"/>
                <medicationReference>
                    <reference value="#med"/>
                </medicationReference>
                <subject>
                    <reference value="Patient/MonikaWegmueller"/>
                </subject>
                <performer>
                    <actor>
                        <reference value="Practitioner/FamilienHausarzt"/>
                    </actor>
                </performer>
                <quantity>
                    <value value="1"/>
                </quantity>
                <note>
                    <text value="-"/>
                </note>
                <dosageInstruction>
                    <timing>
                        <repeat>
                            <boundsPeriod>
                                <start value="2011-11-29"/>
                            </boundsPeriod>
                            <when value="ACM"/>
                        </repeat>
                    </timing>
                    <route>
                        <coding>
                            <system value="urn:oid:0.4.0.127.0.16.1.1.2.1"/>
                            <code value="20053000"/>
                            <display value="Oral use"/>
                        </coding>
                    </route>
                    <doseAndRate>
                        <doseQuantity>
                            <value value="0.5"/>
                        </doseQuantity>
                    </doseAndRate>
                </dosageInstruction>
                <dosageInstruction>
                    <text value="Morgens 1/2 Tablette nehmen"/>
                </dosageInstruction>
                <!-- substitution just as test case -->
                <substitution>
                    <wasSubstituted value="true"/>
                    <type>
                        <coding>
                            <system value="http://terminology.hl7.org/CodeSystem/v3-substanceAdminSubstitution"/>
                            <code value="E"/>
                            <display value="equivalent"/>
                        </coding>
                    </type>
                </substitution>
            </MedicationDispense>
        </resource>
    </entry>

    <!-- Section entry 1: Reference from MedicationStatement.derivedFrom (History) -->
    <entry>
        <fullUrl value="http://test.fhir.ch/r4/Observation/2-2-History"/>
        <resource>
            <Observation>
                <id value="2-2-History"/>
                <meta>
                    <profile value="http://chmed20af.emediplan.ch/fhir/StructureDefinition/chmed20af-analyzer-observationhistory"/>
                </meta>
                <status value="final"/>
                <code>
                    <coding>
                        <system value="urn:oid:1.3.6.1.4.1.19376.1.9.2.1"/>
                        <code value="CHANGE"/>
                    </coding>
                </code>
                <valueCodeableConcept>
                    <coding>
                        <system value="http://chmed20af.emediplan.ch/fhir/CodeSystem/chmed20af-codesystem-history-changes"/>
                        <code value="changeTherapy"/>
                    </coding>
                </valueCodeableConcept>
            </Observation>
        </resource>
    </entry>

    <!-- Section entry 1: Reference from MedicationStatement.derivedFrom (History) -->
    <entry>
        <fullUrl value="http://test.fhir.ch/r4/Observation/2-2-PharmAdvTriatec-Analyzer"/>
        <resource>
            <Observation>
                <id value="2-2-PharmAdvTriatec-Analyzer"/>
                <meta>
                    <profile value="http://chmed20af.emediplan.ch/fhir/StructureDefinition/chmed20af-analyzer-observationpadv"/>
                </meta>
                <extension url="http://fhir.ch/ig/ch-emed/StructureDefinition/ch-emed-ext-treatmentplan">
                    <extension url="id">
                        <valueIdentifier>
                            <system value="urn:ietf:rfc:3986"/>
                            <value value="urn:uuid:c9f758a1-296c-4710-84d4-e181db8c7478"/>
                        </valueIdentifier>
                    </extension>
                    <extension url="externalDocumentId">
                        <valueIdentifier>
                            <system value="urn:ietf:rfc:3986"/>
                            <value value="urn:uuid:c9f758a1-296c-4710-84d4-e181db8c7478"/>
                        </valueIdentifier>
                    </extension>
                </extension>
                <status value="final"/>
                <code>
                    <coding>
                        <system value="urn:oid:1.3.6.1.4.1.19376.1.9.2.1"/>
                        <code value="CANCEL"/>
                    </coding>
                </code>
                <subject>
                    <reference value="Patient/MonikaWegmueller"/>
                </subject>
                <effectiveDateTime value="2012-02-04T14:00:00+01:00"/>
                <performer>
                    <reference value="Practitioner/FamilienHausarzt"/>
                </performer>
                <note>
                    <text value="Abgesetzt aufgrund UAW trockener Husten"/>
                </note>
            </Observation>
        </resource>
    </entry>

    <!-- Section entry 2: MedicationStatement -->
    <entry>
        <fullUrl value="http://test.fhir.ch/r4/MedicationStatement/2-7-MedStatBeloczok-Analyzer"/>
        <resource>
            <MedicationStatement>
                <id value="2-7-MedStatBeloczok-Analyzer"/>
                <meta>
                    <profile value="http://chmed20af.emediplan.ch/fhir/StructureDefinition/chmed20af-analyzer-medicationstatement"/>
                </meta>
                <contained>
                    <Medication>
                        <id value="med"/>
                        <code>
                            <coding>
                                <system value="urn:oid:2.51.1.1"/>
                                <code value="7680521101306"/>
                                <display value="BELOC ZOK Ret Tabl 50 mg 30 Stk"/>
                            </coding>
                            <text value="BELOC ZOK Ret Tabl 50 mg"/>
                        </code>
                        <form>
                            <coding>
                                <system value="urn:oid:0.4.0.127.0.16.1.1.2.1"/>
                                <code value="10219000"/>
                                <display value="Tablet"/>
                            </coding>
                        </form>
                        <amount>
                            <numerator>
                                <value value="30"/>
                            </numerator>
                            <denominator>
                                <value value="1"/>
                            </denominator>
                        </amount>
                        <ingredient>
                            <itemCodeableConcept>
                                <coding>
                                    <system value="http://snomed.info/sct"/>
                                    <code value="372826007"/>
                                    <display value="Metoprolol (substance)"/>
                                </coding>
                                <text value="Metoprolol"/>
                            </itemCodeableConcept>
                            <strength>
                                <numerator>
                                    <value value="50"/>
                                    <unit value="mg"/>
                                </numerator>
                                <denominator>
                                    <value value="1"/>
                                </denominator>
                            </strength>
                        </ingredient>
                    </Medication>
                </contained>
                <status value="completed"/>
                <category>
                    <coding>
                        <system value="http://www.whocc.no/atc"/>
                        <code value="C"/>
                        <display value="Kardiovaskuläres System"/>
                    </coding>
                </category>
                <medicationReference>
                    <reference value="#med"/>
                </medicationReference>
                <subject>
                    <reference value="Patient/MonikaWegmueller"/>
                </subject>
                <informationSource>
                    <reference value="Practitioner/FamilienHausarzt"/>
                </informationSource>
                <!-- History -->
                <derivedFrom>
                    <reference value="MedicationStatement/2-3-MedStatBeloczok-Analyzer"/> <!-- 2-3 Entscheid (Beloc Zok) -->
                </derivedFrom>
                <derivedFrom>
                    <reference value="Observation/2-4-History"/> <!-- Aenderung von Entscheid zu Abgabe (Beloc Zok) -->
                </derivedFrom>
                <derivedFrom>
                    <reference value="MedicationDispense/2-4-MedDispBeloczok-Analyzer"/> <!-- 2-4 Abgabe (Beloc Zok) -->
                </derivedFrom>
                <derivedFrom>
                    <reference value="Observation/2-7-Beloczok-History"/> <!-- 2-7 Erstellung Medication Card -->
                </derivedFrom>
                <derivedFrom>
                    <reference value="MedicationStatement/2-7-MedStatBeloczokFromCard-Analyzer"/> <!-- 2-7 Erstellung Medication Card -->
                </derivedFrom>
                <reasonCode>
                    <text value="Bluthochdruck"/>
                </reasonCode>
                <note>
                    <text value="-"/>
                </note>
                <dosage>
                    <text value="Morgens 1 und abends 1/2 Tablette nehmen"/>
                </dosage>
                <dosage>
                    <sequence value="1"/>
                    <timing>
                        <repeat>
                            <boundsPeriod>
                                <start value="2012-02-04"/>
                            </boundsPeriod>
                            <when value="ACM"/>
                        </repeat>
                    </timing>
                    <route>
                        <coding>
                            <system value="urn:oid:0.4.0.127.0.16.1.1.2.1"/>
                            <code value="20053000"/>
                            <display value="Oral use"/>
                        </coding>
                    </route>
                    <doseAndRate>
                        <doseQuantity>
                            <value value="1"/>
                        </doseQuantity>
                    </doseAndRate>
                </dosage>
                <dosage>
                    <sequence value="2"/>
                    <timing>
                        <repeat>
                            <boundsPeriod>
                                <start value="2012-02-04"/>
                            </boundsPeriod>
                            <when value="ACV"/>
                        </repeat>
                    </timing>
                    <route>
                        <coding>
                            <system value="urn:oid:0.4.0.127.0.16.1.1.2.1"/>
                            <code value="20053000"/>
                            <display value="Oral use"/>
                        </coding>
                    </route>
                    <doseAndRate>
                        <doseQuantity>
                            <value value="0.5"/>
                        </doseQuantity>
                    </doseAndRate>
                </dosage>
            </MedicationStatement>
        </resource>
    </entry>

    <!-- Section entry 2: Reference from MedicationStatement.derivedFrom (History) -->
    <entry>
        <fullUrl value="http://test.fhir.ch/r4/MedicationStatement/2-3-MedStatBeloczok-Analyzer"/>
        <resource>
            <MedicationStatement>
                <id value="2-3-MedStatBeloczok-Analyzer"/>
                <meta>
                    <profile value="http://chmed20af.emediplan.ch/fhir/StructureDefinition/chmed20af-analyzer-medicationstatement"/>
                </meta>
                <contained>
                    <Medication>
                        <id value="med"/>
                        <code>
                            <coding>
                                <system value="urn:oid:2.51.1.1"/>
                                <code value="7680521101306"/>
                                <display value="BELOC ZOK Ret Tabl 50 mg 30 Stk"/>
                            </coding>
                            <text value="BELOC ZOK Ret Tabl 50 mg"/>
                        </code>
                        <form>
                            <coding>
                                <system value="urn:oid:0.4.0.127.0.16.1.1.2.1"/>
                                <code value="10219000"/>
                                <display value="Tablet"/>
                            </coding>
                        </form>
                        <amount>
                            <numerator>
                                <value value="30"/>
                            </numerator>
                            <denominator>
                                <value value="1"/>
                            </denominator>
                        </amount>
                        <ingredient>
                            <itemCodeableConcept>
                                <coding>
                                    <system value="http://snomed.info/sct"/>
                                    <code value="372826007"/>
                                    <display value="Metoprolol (substance)"/>
                                </coding>
                                <text value="Metoprolol"/>
                            </itemCodeableConcept>
                            <strength>
                                <numerator>
                                    <value value="50"/>
                                    <unit value="mg"/>
                                </numerator>
                                <denominator>
                                    <value value="1"/>
                                </denominator>
                            </strength>
                        </ingredient>
                    </Medication>
                </contained>
                <status value="completed"/>
                <category>
                    <coding>
                        <system value="http://www.whocc.no/atc"/>
                        <code value="C"/>
                        <display value="Kardiovaskuläres System"/>
                    </coding>
                </category>
                <medicationReference>
                    <reference value="#med"/>
                </medicationReference>
                <subject>
                    <reference value="Patient/MonikaWegmueller"/>
                </subject>
                <informationSource>
                    <reference value="Practitioner/FamilienHausarzt"/>
                </informationSource>
                <reasonCode>
                    <text value="Bluthochdruck"/>
                </reasonCode>
                <note>
                    <text value="-"/>
                </note>
                <dosage>
                    <text value="Morgens 1 und abends 1/2 Tablette nehmen"/>
                </dosage>
                <dosage>
                    <sequence value="1"/>
                    <timing>
                        <repeat>
                            <boundsPeriod>
                                <start value="2012-02-04"/>
                            </boundsPeriod>
                            <when value="ACM"/>
                        </repeat>
                    </timing>
                    <route>
                        <coding>
                            <system value="urn:oid:0.4.0.127.0.16.1.1.2.1"/>
                            <code value="20053000"/>
                            <display value="Oral use"/>
                        </coding>
                    </route>
                    <doseAndRate>
                        <doseQuantity>
                            <value value="1"/>
                        </doseQuantity>
                    </doseAndRate>
                </dosage>
                <dosage>
                    <sequence value="2"/>
                    <timing>
                        <repeat>
                            <boundsPeriod>
                                <start value="2012-02-04"/>
                            </boundsPeriod>
                            <when value="ACV"/>
                        </repeat>
                    </timing>
                    <route>
                        <coding>
                            <system value="urn:oid:0.4.0.127.0.16.1.1.2.1"/>
                            <code value="20053000"/>
                            <display value="Oral use"/>
                        </coding>
                    </route>
                    <doseAndRate>
                        <doseQuantity>
                            <value value="0.5"/>
                        </doseQuantity>
                    </doseAndRate>
                </dosage>
            </MedicationStatement>
        </resource>
    </entry>

    <!-- Section entry 2: Reference from MedicationStatement.derivedFrom (History) -->
    <entry>
        <fullUrl value="http://test.fhir.ch/r4/Observation/2-4-History"/>
        <resource>
            <Observation>
                <id value="2-4-History"/>
                <meta>
                    <profile value="http://chmed20af.emediplan.ch/fhir/StructureDefinition/chmed20af-analyzer-observationhistory"/>
                </meta>
                <status value="final"/>
                <code>
                    <coding>
                        <system value="urn:oid:1.3.6.1.4.1.19376.1.9.2.1"/>
                        <code value="OK"/>
                    </coding>
                </code>
                <valueCodeableConcept>
                    <coding>
                        <system value="http://chmed20af.emediplan.ch/fhir/CodeSystem/chmed20af-codesystem-history-changes"/>
                        <code value="sameMedication"/>
                    </coding>
                </valueCodeableConcept>
            </Observation>
        </resource>
    </entry>

    <!-- Section entry 2: Reference from MedicationStatement.derivedFrom (History) -->
    <entry>
        <fullUrl value="http://test.fhir.ch/r4/MedicationDispense/2-4-MedDispBeloczok-Analyzer"/>
        <resource>
            <MedicationDispense>
                <id value="2-4-MedDispBeloczok-Analyzer"/>
                <meta>
                    <profile value="http://chmed20af.emediplan.ch/fhir/StructureDefinition/chmed20af-analyzer-medicationdispense"/>
                </meta>
                <contained>
                    <Medication>
                        <id value="med"/>
                        <code>
                            <coding>
                                <system value="urn:oid:2.51.1.1"/>
                                <code value="7680521101306"/>
                                <display value="BELOC ZOK Ret Tabl 50 mg 30 Stk"/>
                            </coding>
                            <text value="BELOC ZOK Ret Tabl 50 mg"/>
                        </code>
                        <form>
                            <coding>
                                <system value="urn:oid:0.4.0.127.0.16.1.1.2.1"/>
                                <code value="10219000"/>
                                <display value="Tablet"/>
                            </coding>
                        </form>
                        <amount>
                            <numerator>
                                <value value="30"/>
                            </numerator>
                            <denominator>
                                <value value="1"/>
                            </denominator>
                        </amount>
                        <ingredient>
                            <itemCodeableConcept>
                                <coding>
                                    <system value="http://snomed.info/sct"/>
                                    <code value="372826007"/>
                                    <display value="Metoprolol (substance)"/>
                                </coding>
                                <text value="Metoprolol"/>
                            </itemCodeableConcept>
                            <strength>
                                <numerator>
                                    <value value="50"/>
                                    <unit value="mg"/>
                                </numerator>
                                <denominator>
                                    <value value="1"/>
                                </denominator>
                            </strength>
                        </ingredient>
                    </Medication>
                </contained>
                <extension url="http://fhir.ch/ig/ch-emed/StructureDefinition/ch-emed-ext-treatmentplan">
                    <extension url="id">
                        <valueIdentifier>
                            <system value="urn:ietf:rfc:3986"/>
                            <value value="urn:uuid:17931678-20b4-11e6-b67b-9e71128cca77"/>
                        </valueIdentifier>
                    </extension>
                    <extension url="externalDocumentId">
                        <valueIdentifier>
                            <system value="urn:ietf:rfc:3986"/>
                            <value value="urn:uuid:17931678-20b4-11e6-b67b-9e71128cca77"/>
                        </valueIdentifier>
                    </extension>
                </extension>
                <status value="completed"/>
                <medicationReference>
                    <reference value="#med"/>
                </medicationReference>
                <subject>
                    <reference value="Patient/MonikaWegmueller"/>
                </subject>
                <performer>
                    <actor>
                        <reference value="Practitioner/FamilienHausarzt"/>
                    </actor>
                </performer>
                <quantity>
                    <value value="1"/>
                </quantity>
                <note>
                    <text value="-"/>
                </note>
                <dosageInstruction>
                    <text value="Morgens 1 und abends 1/2 Tablette nehmen"/>
                </dosageInstruction>
                <dosageInstruction>
                    <sequence value="1"/>
                    <timing>
                        <repeat>
                            <boundsPeriod>
                                <start value="2012-02-04"/>
                            </boundsPeriod>
                            <when value="ACM"/>
                        </repeat>
                    </timing>
                    <route>
                        <coding>
                            <system value="urn:oid:0.4.0.127.0.16.1.1.2.1"/>
                            <code value="20053000"/>
                            <display value="Oral use"/>
                        </coding>
                    </route>
                    <doseAndRate>
                        <doseQuantity>
                            <value value="1"/>
                        </doseQuantity>
                    </doseAndRate>
                </dosageInstruction>
                <dosageInstruction>
                    <sequence value="2"/>
                    <timing>
                        <repeat>
                            <boundsPeriod>
                                <start value="2012-02-04"/>
                            </boundsPeriod>
                            <when value="ACV"/>
                        </repeat>
                    </timing>
                    <route>
                        <coding>
                            <system value="urn:oid:0.4.0.127.0.16.1.1.2.1"/>
                            <code value="20053000"/>
                            <display value="Oral use"/>
                        </coding>
                    </route>
                    <doseAndRate>
                        <doseQuantity>
                            <value value="0.5"/>
                        </doseQuantity>
                    </doseAndRate>
                </dosageInstruction>
                <!-- substitution just as test case -->
                <substitution>
                    <wasSubstituted value="true"/>
                    <type>
                        <coding>
                            <system value="http://terminology.hl7.org/CodeSystem/v3-substanceAdminSubstitution"/>
                            <code value="E"/>
                            <display value="equivalent"/>
                        </coding>
                    </type>
                </substitution>
            </MedicationDispense>
        </resource>
    </entry>

    <!-- Section entry 2: Reference from MedicationStatement.derivedFrom (History) -->
    <entry>
        <fullUrl value="http://test.fhir.ch/r4/Observation/2-7-Beloczok-History"/>
        <resource>
            <Observation>
                <id value="2-7-Beloczok-History"/>
                <meta>
                    <profile value="http://chmed20af.emediplan.ch/fhir/StructureDefinition/chmed20af-analyzer-observationhistory"/>
                </meta>
                <status value="final"/>
                <code>
                    <coding>
                        <system value="urn:oid:1.3.6.1.4.1.19376.1.9.2.1"/>
                        <code value="OK"/>
                    </coding>
                </code>
                <valueCodeableConcept>
                    <coding>
                        <system value="http://chmed20af.emediplan.ch/fhir/CodeSystem/chmed20af-codesystem-history-changes"/>
                        <code value="sameMedication"/>
                    </coding>
                </valueCodeableConcept>
            </Observation>
        </resource>
    </entry>

    <!-- Section entry 2: Reference from MedicationStatement.derivedFrom (History) -->
    <entry>
        <fullUrl value="http://test.fhir.ch/r4/MedicationStatement/2-7-MedStatBeloczokFromCard-Analyzer"/>
        <resource>
            <MedicationStatement>
                <id value="2-7-MedStatBeloczokFromCard-Analyzer"/>
                <meta>
                    <profile value="http://chmed20af.emediplan.ch/fhir/StructureDefinition/chmed20af-analyzer-medicationstatement"/>
                </meta>
                <contained>
                    <Medication>
                        <id value="med"/>
                        <code>
                            <coding>
                                <system value="urn:oid:2.51.1.1"/>
                                <code value="7680521101306"/>
                                <display value="BELOC ZOK Ret Tabl 50 mg 30 Stk"/>
                            </coding>
                            <text value="BELOC ZOK Ret Tabl 50 mg"/>
                        </code>
                        <form>
                            <coding>
                                <system value="urn:oid:0.4.0.127.0.16.1.1.2.1"/>
                                <code value="10219000"/>
                                <display value="Tablet"/>
                            </coding>
                        </form>
                        <amount>
                            <numerator>
                                <value value="30"/>
                            </numerator>
                            <denominator>
                                <value value="1"/>
                            </denominator>
                        </amount>
                        <ingredient>
                            <itemCodeableConcept>
                                <coding>
                                    <system value="http://snomed.info/sct"/>
                                    <code value="372826007"/>
                                    <display value="Metoprolol (substance)"/>
                                </coding>
                                <text value="Metoprolol"/>
                            </itemCodeableConcept>
                            <strength>
                                <numerator>
                                    <value value="50"/>
                                    <unit value="mg"/>
                                </numerator>
                                <denominator>
                                    <value value="1"/>
                                </denominator>
                            </strength>
                        </ingredient>
                    </Medication>
                </contained>
                <extension url="http://fhir.ch/ig/ch-emed/StructureDefinition/ch-emed-ext-treatmentplan">
                    <extension url="id">
                        <valueIdentifier>
                            <system value="urn:ietf:rfc:3986"/>
                            <value value="urn:uuid:5712fffe-20c6-11e6-b67b-9e71128cae77"/>
                        </valueIdentifier>
                    </extension>
                    <extension url="externalDocumentId">
                        <valueIdentifier>
                            <system value="urn:ietf:rfc:3986"/>
                            <value value="urn:uuid:5712fffe-20c6-11e6-b67b-9e71128cae77"/>
                        </valueIdentifier>
                    </extension>
                </extension>
                <status value="completed"/>
                <medicationReference>
                    <reference value="#med"/>
                </medicationReference>
                <subject>
                    <reference value="Patient/MonikaWegmueller"/>
                </subject>
                <informationSource>
                    <reference value="Practitioner/FamilienHausarzt"/>
                </informationSource>
                <reasonCode>
                    <text value="Bluthochdruck"/>
                </reasonCode>
                <note>
                    <text value="-"/>
                </note>
                <dosage>
                    <text value="Morgens 1 und abends 1/2 Tablette nehmen"/>
                </dosage>
                <dosage>
                    <sequence value="1"/>
                    <timing>
                        <repeat>
                            <boundsPeriod>
                                <start value="2012-02-04"/>
                            </boundsPeriod>
                            <when value="ACM"/>
                        </repeat>
                    </timing>
                    <route>
                        <coding>
                            <system value="urn:oid:0.4.0.127.0.16.1.1.2.1"/>
                            <code value="20053000"/>
                            <display value="Oral use"/>
                        </coding>
                    </route>
                    <doseAndRate>
                        <doseQuantity>
                            <value value="1"/>
                        </doseQuantity>
                    </doseAndRate>
                </dosage>
                <dosage>
                    <sequence value="2"/>
                    <timing>
                        <repeat>
                            <boundsPeriod>
                                <start value="2012-02-04"/>
                            </boundsPeriod>
                        <when value="ACV"/>
                        </repeat>
                    </timing>
                    <route>
                        <coding>
                            <system value="urn:oid:0.4.0.127.0.16.1.1.2.1"/>
                            <code value="20053000"/>
                            <display value="Oral use"/>
                        </coding>
                    </route>
                    <doseAndRate>
                        <doseQuantity>
                            <value value="0.5"/>
                        </doseQuantity>
                    </doseAndRate>
                </dosage>
            </MedicationStatement>
        </resource>
    </entry>

    <!-- Section entry 3: MedicationStatement -->
    <entry>
        <fullUrl value="http://test.fhir.ch/r4/MedicationStatement/2-7-MedStatNorvasc-Analyzer"/>
        <resource>
            <MedicationStatement>
                <id value="2-7-MedStatNorvasc-Analyzer"/>
                <meta>
                    <profile value="http://chmed20af.emediplan.ch/fhir/StructureDefinition/chmed20af-analyzer-medicationstatement"/>
                </meta>
                <contained>
                    <Medication>
                        <id value="med"/>
                        <code>
                            <coding>
                                <system value="urn:oid:2.51.1.1"/>
                                <code value="7680500440334"/>
                                <display value="NORVASC Tabl 10 mg"/>
                            </coding>
                            <text value="NORVASC Tabl 10 mg"/>
                        </code>
                        <form>
                            <coding>
                                <system value="urn:oid:0.4.0.127.0.16.1.1.2.1"/>
                                <code value="10219000"/>
                                <display value="Tablet"/>
                            </coding>
                        </form>
                        <amount>
                            <numerator>
                                <value value="30"/>
                            </numerator>
                            <denominator>
                                <value value="1"/>
                            </denominator>
                        </amount>
                        <ingredient>
                            <itemCodeableConcept>
                                <coding>
                                    <system value="http://snomed.info/sct"/>
                                    <code value="386864001"/>
                                    <display value="Amlodipine (substance)"/>
                                </coding>
                                <text value="Amlodipine"/>
                            </itemCodeableConcept>
                            <strength>
                                <numerator>
                                    <value value="10"/>
                                    <unit value="mg"/>
                                </numerator>
                                <denominator>
                                    <value value="1"/>
                                </denominator>
                            </strength>
                        </ingredient>
                    </Medication>
                </contained>
                <status value="completed"/>
                <category>
                    <coding>
                        <system value="http://www.whocc.no/atc"/>
                        <code value="C"/>
                        <display value="Kardiovaskuläres System"/>
                    </coding>
                </category>
                <medicationReference>
                    <reference value="#med"/>
                </medicationReference>
                <subject>
                    <reference value="Patient/MonikaWegmueller"/>
                </subject>
                <informationSource>
                    <reference value="Practitioner/FamilienHausarzt"/>
                </informationSource>
                <!-- History -->
                <derivedFrom>
                    <reference value="MedicationStatement/2-5-MedStatNorvasc-Analyzer"/> <!-- 2-5 Entscheid (Norvasc) -->
                </derivedFrom>
                <derivedFrom>
                    <reference value="Observation/2-6-History"/> <!-- Aenderung von Entscheid zu Rezept (Norvasc) -->
                </derivedFrom>
                <derivedFrom>
                    <reference value="MedicationRequest/2-6-MedReqNorvasc-Analyzer"/> <!-- 2-6 Rezept (Norvasc) -->
                </derivedFrom>
                <derivedFrom>
                    <reference value="Observation/2-7-Norvasc-History"/> <!-- 2-7 Erstellung Medication Card -->
                </derivedFrom>
                <derivedFrom>
                    <reference value="MedicationStatement/2-7-MedStatNorvascFromCard-Analyzer"/> <!-- 2-7 Erstellung Medication Card -->
                </derivedFrom>
                <reasonCode>
                    <text value="Bluthochdruck"/>
                </reasonCode>
                <note>
                    <text value="-"/>
                </note>
                <dosage>
                    <timing>
                        <repeat>
                            <boundsPeriod>
                                <start value="2012-02-04"/>
                            </boundsPeriod>
                            <when value="ACM"/>
                            <when value="ACV"/>
                        </repeat>
                    </timing>
                    <route>
                        <coding>
                            <system value="urn:oid:0.4.0.127.0.16.1.1.2.1"/>
                            <code value="20053000"/>
                            <display value="Oral use"/>
                        </coding>
                    </route>
                </dosage>
                <dosage>
                    <text value="Morgens und abends je 1 Tablette nehmen"/>
                </dosage>
            </MedicationStatement>
        </resource>
    </entry>
    
    <!-- Section entry 3: Reference from MedicationStatement.derivedFrom (History) -->
    <entry>
        <fullUrl value="http://test.fhir.ch/r4/MedicationStatement/2-5-MedStatNorvasc-Analyzer"/>
        <resource>
            <MedicationStatement>
                <id value="2-5-MedStatNorvasc-Analyzer"/>
                <meta>
                    <profile value="http://chmed20af.emediplan.ch/fhir/StructureDefinition/chmed20af-analyzer-medicationstatement"/>
                </meta>
                <contained>
                    <Medication>
                        <id value="med"/>
                        <code>
                            <coding>
                                <system value="urn:oid:2.51.1.1"/>
                                <code value="7680500440334"/>
                                <display value="NORVASC Tabl 10 mg"/>
                            </coding>
                            <text value="NORVASC Tabl 10 mg"/>
                        </code>
                        <form>
                            <coding>
                                <system value="urn:oid:0.4.0.127.0.16.1.1.2.1"/>
                                <code value="10219000"/>
                                <display value="Tablet"/>
                            </coding>
                        </form>
                        <amount>
                            <numerator>
                                <value value="30"/>
                            </numerator>
                            <denominator>
                                <value value="1"/>
                            </denominator>
                        </amount>
                        <ingredient>
                            <itemCodeableConcept>
                                <coding>
                                    <system value="http://snomed.info/sct"/>
                                    <code value="386864001"/>
                                    <display value="Amlodipine (substance)"/>
                                </coding>
                                <text value="Amlodipine"/>
                            </itemCodeableConcept>
                            <strength>
                                <numerator>
                                    <value value="10"/>
                                    <unit value="mg"/>
                                </numerator>
                                <denominator>
                                    <value value="1"/>
                                </denominator>
                            </strength>
                        </ingredient>
                    </Medication>
                </contained>
                <status value="completed"/>
                <category>
                    <coding>
                        <system value="http://www.whocc.no/atc"/>
                        <code value="C"/>
                        <display value="Kardiovaskuläres System"/>
                    </coding>
                </category>
                <medicationReference>
                    <reference value="#med"/>
                </medicationReference>
                <subject>
                    <reference value="Patient/MonikaWegmueller"/>
                </subject>
                <informationSource>
                    <reference value="Practitioner/FamilienHausarzt"/>
                </informationSource>
                <reasonCode>
                    <text value="Bluthochdruck"/>
                </reasonCode>
                <note>
                    <text value="-"/>
                </note>
                <dosage>
                    <timing>
                        <repeat>
                            <boundsPeriod>
                                <start value="2012-02-04"/>
                            </boundsPeriod>
                            <when value="ACM"/>
                            <when value="ACV"/>
                        </repeat>
                    </timing>
                    <route>
                        <coding>
                            <system value="urn:oid:0.4.0.127.0.16.1.1.2.1"/>
                            <code value="20053000"/>
                            <display value="Oral use"/>
                        </coding>
                    </route>
                </dosage>
                <dosage>
                    <text value="Morgens und abends je 1 Tablette nehmen"/>
                </dosage>
            </MedicationStatement>
        </resource>
    </entry>

    <!-- Section entry 3: Reference from MedicationStatement.derivedFrom (History) -->
    <entry>
        <fullUrl value="http://test.fhir.ch/r4/Observation/2-6-History"/>
        <resource>
            <Observation>
                <id value="2-6-History"/>
                <meta>
                    <profile value="http://chmed20af.emediplan.ch/fhir/StructureDefinition/chmed20af-analyzer-observationhistory"/>
                </meta>
                <status value="final"/>
                <code>
                    <coding>
                        <system value="urn:oid:1.3.6.1.4.1.19376.1.9.2.1"/>
                        <code value="OK"/>
                    </coding>
                </code>
                <valueCodeableConcept>
                    <coding>
                        <system value="http://chmed20af.emediplan.ch/fhir/CodeSystem/chmed20af-codesystem-history-changes"/>
                        <code value="sameMedication"/>
                    </coding>
                </valueCodeableConcept>
            </Observation>
        </resource>
    </entry>

    <!-- Section entry 3: Reference from MedicationStatement.derivedFrom (History) -->
    <entry>
      <fullUrl value="http://test.fhir.ch/r4/MedicationRequest/2-6-MedReqNorvasc-Analyzer"/>
      <resource>
         <MedicationRequest>
            <id value="2-6-MedReqNorvasc-Analyzer"/>
            <meta>
                <profile value="http://chmed20af.emediplan.ch/fhir/StructureDefinition/chmed20af-analyzer-medicationrequest"/>
            </meta>
            <contained>
               <Medication>
                  <id value="med"/>
                  <code>
                     <coding>
                        <system value="urn:oid:2.51.1.1"/>
                        <code value="7680500440334"/>
                        <display value="NORVASC Tabl 10 mg"/>
                     </coding>
                     <text value="NORVASC Tabl 10 mg"/>
                  </code>
                  <form>
                     <coding>
                        <system value="urn:oid:0.4.0.127.0.16.1.1.2.1"/>
                        <code value="10219000"/>
                        <display value="Tablet"/>
                     </coding>
                  </form>
                  <amount>
                     <numerator>
                        <value value="30"/>
                     </numerator>
                     <denominator>
                        <value value="1"/>
                     </denominator>
                  </amount>
                  <ingredient>
                     <itemCodeableConcept>
                        <coding>
                           <system value="http://snomed.info/sct"/>
                           <code value="386864001"/>
                           <display value="Amlodipine (substance)"/>
                        </coding>
                        <text value="Amlodipine"/>
                     </itemCodeableConcept>
                     <strength>
                        <numerator>
                           <value value="10"/>
                           <unit value="mg"/>
                        </numerator>
                        <denominator>
                           <value value="1"/>
                        </denominator>
                     </strength>
                  </ingredient>
               </Medication>
            </contained>
            <extension url="http://fhir.ch/ig/ch-emed/StructureDefinition/ch-emed-ext-treatmentplan">
               <extension url="id">
                  <valueIdentifier>
                     <system value="urn:ietf:rfc:3986"/>
                     <value value="urn:uuid:5712fffe-20c6-11e6-b67b-9e71128cae77"/>
                  </valueIdentifier>
               </extension>
               <extension url="externalDocumentId">
                  <valueIdentifier>
                     <system value="urn:ietf:rfc:3986"/>
                     <value value="urn:uuid:5712fffe-20c6-11e6-b67b-9e71128cae77"/>
                  </valueIdentifier>
               </extension>
            </extension>
            <status value="completed"/>
            <intent value="order"/>
            <medicationReference>
               <reference value="#med"/>
            </medicationReference>
            <subject>
               <reference value="Patient/MonikaWegmueller"/>
            </subject>
            <performer>
                <reference value="Practitioner/FamilienHausarzt"/>
            </performer>
            <reasonCode>
               <text value="-"/>
            </reasonCode>
            <note>
               <text value="-"/>
            </note>
            <dosageInstruction>
               <timing>
                  <repeat>
                     <boundsPeriod>
                        <start value="2012-02-04"/>
                     </boundsPeriod>
                     <when value="ACM"/>
                     <when value="ACV"/>
                  </repeat>
               </timing>
               <route>
                  <coding>
                     <system value="urn:oid:0.4.0.127.0.16.1.1.2.1"/>
                     <code value="20053000"/>
                     <display value="Oral use"/>
                  </coding>
               </route>
               <doseAndRate>
                  <doseQuantity>
                     <value value="1"/>
                  </doseQuantity>
               </doseAndRate>
            </dosageInstruction>
            <dosageInstruction>
               <text value="Morgens und abends je 1 Tablette nehmen"/>
            </dosageInstruction>
            <dispenseRequest>
               <numberOfRepeatsAllowed value="2"/>
               <quantity>
                  <value value="1"/>
               </quantity>
            </dispenseRequest>
            <!-- substitution just as test case -->
            <substitution>
               <allowedCodeableConcept>
                  <coding>
                     <system value="http://terminology.hl7.org/CodeSystem/v3-substanceAdminSubstitution"/>
                     <code value="E"/>
                     <display value="equivalent"/>
                  </coding>
               </allowedCodeableConcept>
            </substitution>
         </MedicationRequest>
      </resource>
   </entry>

   <!-- Section entry 3: Reference from MedicationStatement.derivedFrom (History) -->
    <entry>
        <fullUrl value="http://test.fhir.ch/r4/Observation/2-7-Norvasc-History"/>
        <resource>
            <Observation>
                <id value="2-7-Norvasc-History"/>
                <meta>
                    <profile value="http://chmed20af.emediplan.ch/fhir/StructureDefinition/chmed20af-analyzer-observationhistory"/>
                </meta>
                <status value="final"/>
                <code>
                    <coding>
                        <system value="urn:oid:1.3.6.1.4.1.19376.1.9.2.1"/>
                        <code value="OK"/>
                    </coding>
                </code>
                <valueCodeableConcept>
                    <coding>
                        <system value="http://chmed20af.emediplan.ch/fhir/CodeSystem/chmed20af-codesystem-history-changes"/>
                        <code value="sameMedication"/>
                    </coding>
                </valueCodeableConcept>
            </Observation>
        </resource>
    </entry>

    <!-- Section entry 3: Reference from MedicationStatement.derivedFrom (History) -->
    <entry>
        <fullUrl value="http://test.fhir.ch/r4/MedicationStatement/2-7-MedStatNorvascFromCard-Analyzer"/>
        <resource>
            <MedicationStatement>
                <id value="2-7-MedStatNorvascFromCard-Analyzer"/>
                <meta>
                    <profile value="http://chmed20af.emediplan.ch/fhir/StructureDefinition/chmed20af-analyzer-medicationstatement"/>
                </meta>
                <contained>
                    <Medication>
                        <id value="med"/>
                        <code>
                            <coding>
                                <system value="urn:oid:2.51.1.1"/>
                                <code value="7680500440334"/>
                                <display value="NORVASC Tabl 10 mg"/>
                            </coding>
                            <text value="NORVASC Tabl 10 mg"/>
                        </code>
                        <form>
                            <coding>
                                <system value="urn:oid:0.4.0.127.0.16.1.1.2.1"/>
                                <code value="10219000"/>
                                <display value="Tablet"/>
                            </coding>
                        </form>
                        <amount>
                            <numerator>
                                <value value="30"/>
                            </numerator>
                            <denominator>
                                <value value="1"/>
                            </denominator>
                        </amount>
                        <ingredient>
                            <itemCodeableConcept>
                                <coding>
                                    <system value="http://snomed.info/sct"/>
                                    <code value="386864001"/>
                                    <display value="Amlodipine (substance)"/>
                                </coding>
                                <text value="Amlodipine"/>
                            </itemCodeableConcept>
                            <strength>
                                <numerator>
                                    <value value="10"/>
                                    <unit value="mg"/>
                                </numerator>
                                <denominator>
                                    <value value="1"/>
                                </denominator>
                            </strength>
                        </ingredient>
                    </Medication>
                </contained>
                <extension url="http://fhir.ch/ig/ch-emed/StructureDefinition/ch-emed-ext-treatmentplan">
                    <extension url="id">
                        <valueIdentifier>
                            <system value="urn:ietf:rfc:3986"/>
                            <value value="urn:uuid:5712fffe-20c6-11e6-b67b-9e71128cae77"/>
                        </valueIdentifier>
                    </extension>
                    <extension url="externalDocumentId">
                        <valueIdentifier>
                            <system value="urn:ietf:rfc:3986"/>
                            <value value="urn:uuid:5712fffe-20c6-11e6-b67b-9e71128cae77"/>
                        </valueIdentifier>
                    </extension>
                </extension>
                <status value="completed"/>
                <medicationReference>
                    <reference value="#med"/>
                </medicationReference>
                <subject>
                <reference value="Patient/MonikaWegmueller"/>
                </subject>
                <performer>
                    <reference value="Practitioner/FamilienHausarzt"/>
                </performer>
                <reasonCode>
                    <text value="Bluthochdruck"/>
                </reasonCode>
                <note>
                    <text value="-"/>
                </note>
                <dosage>
                    <timing>
                        <repeat>
                            <boundsPeriod>
                                <start value="2012-02-04"/>
                            </boundsPeriod>
                            <when value="ACM"/>
                            <when value="ACV"/>
                        </repeat>
                    </timing>
                    <route>
                        <coding>
                            <system value="urn:oid:0.4.0.127.0.16.1.1.2.1"/>
                            <code value="20053000"/>
                            <display value="Oral use"/>
                        </coding>
                    </route>
                    <doseAndRate>
                        <doseQuantity>
                            <value value="1"/>
                        </doseQuantity>
                    </doseAndRate>
                </dosage>
                <dosage>
                    <text value="Morgens und abends je 1 Tablette nehmen"/>
                </dosage>
            </MedicationStatement>
        </resource>
    </entry>
</Bundle>