<Bundle xmlns="http://hl7.org/fhir">
    <id value="A2-MedicationCard-1x10mg"/>
    <meta>
        <lastUpdated value="2021-04-20T11:00:00+01:00"/>
        <profile value="http://chmed20af.emediplan.ch/fhir/StructureDefinition/chmed20af-card-bundle"/>
    </meta>
    <identifier>
        <system value="urn:ietf:rfc:3986"/>
        <value value="urn:uuid:26d3dff7-ab05-4737-a49c-5eccd3359a2b"/>
    </identifier>
    <type value="document"/>
    <timestamp value="2020-02-01T11:30:00+01:00"/>
    <entry>
        <fullUrl value="http://test.fhir.ch/r4/Composition/A2-CompValium-1x10"/>
        <resource>
            <Composition>
                <id value="A2-CompValium-1x10"/>
                <language value="de-CH"/>
                <extension url="http://chmed20af.emediplan.ch/fhir/StructureDefinition/chmed20af-inputdocumentsource">
                    <valueString value="Cara"/>
                </extension>
                <extension url="http://fhir.ch/ig/ch-core/StructureDefinition/ch-ext-epr-setid">
                    <valueIdentifier>
                        <system value="http://emediplan.ch/chmed20af/id"/>
                        <value value="26d3dff7-ab05-4737-a49c-5eccd3359a2b"/>
                    </valueIdentifier>
                </extension>
                <extension url="http://fhir.ch/ig/ch-core/StructureDefinition/ch-ext-epr-versionnumber">
                    <valueUnsignedInt value="1"/>
                </extension>
                <extension url="http://fhir.ch/ig/ch-core/StructureDefinition/ch-ext-epr-informationrecipient">
                    <valueReference>
                        <reference value="Patient/MonikaWegmuellerRecipient"/>
                    </valueReference>
                </extension>
                <identifier>
                    <system value="http://emediplan.ch/chmed20af/id"/>
                    <value value="26d3dff7-ab05-4737-a49c-5eccd3359a2b"/>
                </identifier>
                <status value="final"/>
                <type>
                    <coding>
                        <system value="http://snomed.info/sct"/>
                        <code value="721912009"/>
                        <display value="Medication summary document (record artifact)"/>
                    </coding>
                </type>
                <subject>
                    <reference value="Patient/MonikaWegmueller"/>
                </subject>
                <date value="2020-02-01T11:30:00+01:00"/>
                <author>
                    <reference value="Practitioner/Apotheker"/>
                </author>
                <title value="Medikationsplan"/>
                <confidentiality value="N">
                    <extension url="http://fhir.ch/ig/ch-core/StructureDefinition/ch-ext-epr-confidentialitycode">
                        <valueCodeableConcept>
                            <coding>
                                <system value="http://snomed.info/sct"/>
                                <code value="17621005"/>
                                <display value="Normally accessible"/>
                            </coding>
                        </valueCodeableConcept>
                    </extension>
                </confidentiality>
                <custodian>
                    <reference value="Organization/ApothekeGare"/>
                </custodian>
                <section>
                    <title value="Aktuelle Medikation"/>
                    <code>
                        <coding>
                            <system value="http://loinc.org"/>
                            <code value="10160-0"/>
                            <display value="History of medication use"/>
                        </coding>
                    </code>
                    <text>
                        <status value="additional"/>
                        <div xmlns="http://www.w3.org/1999/xhtml"> Aktuelle Medikation </div>
                    </text>
                    <entry>
                        <reference value="MedicationStatement/A2-MedStatValium-1x10"/>
                    </entry>
                </section>
            </Composition>
        </resource>
    </entry>
    <entry>
        <fullUrl value="http://test.fhir.ch/r4/Patient/MonikaWegmueller"/>
        <resource>
            <Patient>
                <id value="MonikaWegmueller"/>
                <identifier>
                    <type>
                        <coding>
                            <system value="http://terminology.hl7.org/CodeSystem/v2-0203"/>
                            <code value="MR"/>
                        </coding>
                    </type>
                    <system value="urn:oid:2.999"/>
                    <value value="11111111"/>
                </identifier>
                <name>
                    <family value="Wegm端ller"/>
                    <given value="Monika"/>
                </name>
                <gender value="female"/>
                <birthDate value="1943-05-15"/>
                <address>
                    <line value="Wiesenstr. 12"/>
                    <city value="Z端rich"/>
                    <postalCode value="8003"/>
                    <country value="CH"/>
                </address>
            </Patient>
        </resource>
    </entry>
    <entry>
        <fullUrl value="http://test.fhir.ch/r4/Practitioner/Apotheker"/>
        <resource>
            <Practitioner>
                <id value="Apotheker"/>
                <identifier>
                    <system value="urn:oid:2.51.1.3"/>
                    <value value="7601000237755"/>
                </identifier>
                <name>
                    <family value="Apotheker"/>
                    <given value="Andreas"/>
                </name>
            </Practitioner>
        </resource>
    </entry>
    <entry>
        <fullUrl value="http://test.fhir.ch/r4/Organization/ApothekeGare"/>
        <resource>
            <Organization>
                <id value="ApothekeGare"/>
                <identifier>
                    <system value="urn:oid:2.51.1.3"/>
                    <value value="7601000237755"/>
                </identifier>
                <name value="Apotheke Gare"/>
            </Organization>
        </resource>
    </entry>
    <entry>
        <fullUrl value="http://test.fhir.ch/r4/Patient/MonikaWegmuellerRecipient"/>
        <resource>
            <Patient>
                <id value="MonikaWegmuellerRecipient"/>
                <name>
                    <family value="Wegm端ller"/>
                    <given value="Monika"/>
                </name>
                <address>
                    <line value="Wiesenstr. 12"/>
                    <city value="Z端rich"/>
                    <postalCode value="8003"/>
                    <country value="CH"/>
                </address>
            </Patient>
        </resource>
    </entry>
    <entry>
        <fullUrl value="http://test.fhir.ch/r4/MedicationStatement/A2-MedStatValium-1x10"/>
        <resource>
            <MedicationStatement xmlns="http://hl7.org/fhir">
                <id value="A2-MedStatValium-1x10"/>
                <contained>
                    <Medication xmlns="http://hl7.org/fhir">
                        <id value="cont1"/>
                        <code>
                            <coding>
                                <system value="urn:oid:2.51.1.1"/>
                                <code value="7680288400711"/>
                                <display value="VALIUM Tabl 10 mg"/>
                            </coding>
                            <text value="VALIUM Tabl 10 mg"/>
                        </code>
                        <form>
                            <coding>
                                <system value="urn:oid:0.4.0.127.0.16.1.1.2.1"/>
                                <code value="10219000"/>
                                <display value="Tablet"/>
                            </coding>
                        </form>
                        <amount>
                            <numerator>
                                <value value="100"/>
                            </numerator>
                            <denominator>
                                <value value="1"/>
                            </denominator>
                        </amount>
                        <ingredient>
                            <itemCodeableConcept>
                                <coding>
                                    <system value="http://snomed.info/sct"/>
                                    <code value="387264003"/>
                                    <display value="Diazepam (substance)"/>
                                </coding>
                            </itemCodeableConcept>
                            <strength>
                                <numerator>
                                    <value value="10"/>
                                    <unit value="mg"/>
                                </numerator>
                                <denominator>
                                    <value value="1"/>
                                </denominator>
                            </strength>
                        </ingredient>
                    </Medication>
                </contained>
                <status value="completed"/>
                <category>
                    <coding>
                        <system value="http://www.whocc.no/atc"/>
                        <code value="N"/>
                        <display value="Nervensystem"/>
                    </coding>
                </category>
                <medicationReference>
                    <reference value="#cont1"/>
                </medicationReference>
                <subject>
                    <reference value="Patient/MonikaWegmueller"/>
                </subject>
                <reasonCode>
                    <text value="Beruhigung"/>
                </reasonCode>
                <dosage>
                    <text value="1 Tablette f端r die Nacht"/>
                </dosage>
                <dosage>
                    <timing>
                        <repeat>
                            <boundsPeriod>
                                <start value="2020-02-01"/>
                            </boundsPeriod>
                            <when value="HS"/>
                        </repeat>
                    </timing>
                    <route>
                        <coding>
                            <system value="urn:oid:0.4.0.127.0.16.1.1.2.1"/>
                            <code value="20053000"/>
                            <display value="Oral use"/>
                        </coding>
                    </route>
                    <doseAndRate>
                        <doseQuantity>
                            <value value="1"/>
                            <unit value="Tablette"/>
                            <system value="http://unitsofmeasure.org"/>
                            <code value="1"/>
                        </doseQuantity>
                    </doseAndRate>
                </dosage>
            </MedicationStatement>
        </resource>
    </entry>
</Bundle>