<Bundle xmlns="http://hl7.org/fhir">
    <id value="A3-ConsolidatedMedicationCard"/>
    <meta>
        <profile value="http://chmed20af.emediplan.ch/fhir/StructureDefinition/chmed20af-analyzer-bundle"/>
    </meta>
    <identifier>
        <system value="http://emediplan.ch/chmed20af/id"/>
        <value value="26d3dff7-ab05-4737-a49c-5eccd33511a3"/>
    </identifier>
    <type value="document"/>
    <timestamp value="2020-03-10T18:00:00+01:00"/>
    <entry>
        <fullUrl value="http://test.fhir.ch/r4/Composition/A3-Analyzer"/>
        <resource>
            <Composition>
                <id value="A3-Analyzer"/>
                <meta>
                    <profile value="http://chmed20af.emediplan.ch/fhir/StructureDefinition/chmed20af-analyzer-composition"/>
                </meta>
                <status value="final"/>
                <type>
                    <coding>
                        <system value="http://snomed.info/sct"/>
                        <code value="721912009"/>
                        <display value="Medication summary document (record artifact)"/>
                    </coding>
                </type>
                <subject>
                    <reference value="Patient/MonikaWegmueller"/>
                </subject>
                <date value="2020-03-10T18:00:00+01:00"/>
                <author>
                    <reference value="Device/Analyzer"/>
                </author>
                <title value="Medikationsplan"/>
                <section>
                    <entry>
                        <reference value="MedicationStatement/A3-MedStatReniten-Analyzer"/>
                    </entry>
                </section>
            </Composition>
        </resource>
    </entry>
    <entry>
        <fullUrl value="http://test.fhir.ch/r4/Patient/MonikaWegmueller"/>
        <resource>
            <Patient>
                <id value="MonikaWegmueller"/>
                <meta>
                    <profile value="http://chmed20af.emediplan.ch/fhir/StructureDefinition/chmed20af-analyzer-patient"/>
                </meta>
                <identifier>
                    <type>
                        <coding>
                            <system value="http://terminology.hl7.org/CodeSystem/v2-0203"/>
                            <code value="MR"/>
                        </coding>
                    </type>
                    <system value="urn:oid:2.999"/>
                    <value value="11111111"/>
                </identifier>
                <name>
                    <family value="Wegmüller"/>
                    <given value="Monika"/>
                </name>
                <gender value="female"/>
                <birthDate value="1943-05-15"/>
                <address>
                    <line value="Wiesenstr. 12"/>
                    <city value="Zürich"/>
                    <postalCode value="8003"/>
                    <country value="CH"/>
                </address>
            </Patient>
        </resource>
    </entry>
    <entry>
        <fullUrl value="http://test.fhir.ch/r4/Practitioner/HausarztDupont"/>
        <resource>
            <Practitioner>
                <id value="HausarztDupont"/>
                <meta>
                    <profile value="http://chmed20af.emediplan.ch/fhir/StructureDefinition/chmed20af-analyzer-practitioner"/>
                </meta>
                <identifier>
                    <system value="urn:oid:2.51.1.3"/>
                    <value value="7601000234466"/>
                </identifier>
                <name>
                    <family value="Dupont"/>
                    <given value="Hausarzt"/>
                </name>
            </Practitioner>
        </resource>
    </entry>
    <entry>
        <fullUrl value="http://test.fhir.ch/r4/Device/Analyzer"/>
        <resource>
            <Device>
                <id value="Analyzer"/>
                <meta>
                    <profile value="http://hl7.org/fhir/StructureDefinition/Device"/>
                </meta>
                <deviceName>
                    <name value="Analyzer"/>
                    <type value="user-friendly-name"/>
                </deviceName>
            </Device>
        </resource>
    </entry>

    <!-- Section entry: MedicationStatement -->
    <entry>
        <fullUrl value="http://test.fhir.ch/r4/MedicationStatement/A3-MedStatReniten-Analyzer"/>
        <resource>
            <MedicationStatement>
                <id value="A3-MedStatReniten-Analyzer"/>
                <meta>
                    <profile value="http://chmed20af.emediplan.ch/fhir/StructureDefinition/chmed20af-analyzer-medicationstatement"/>
                </meta>
                <contained>
                    <Medication>
                        <id value="cont1"/>
                        <code>
                            <coding>
                                <system value="urn:oid:2.51.1.1"/>
                                <code value="7680460380299"/>
                                <display value="RENITEN Tabl 20 mg"/>
                            </coding>
                            <text value="RENITEN Tabl 20 mg"/>
                        </code>
                        <form>
                            <coding>
                                <system value="urn:oid:0.4.0.127.0.16.1.1.2.1"/>
                                <code value="10219000"/>
                                <display value="Tablet"/>
                            </coding>
                        </form>
                        <amount>
                            <numerator>
                                <value value="98"/>
                            </numerator>
                            <denominator>
                                <value value="1"/>
                            </denominator>
                        </amount>
                        <ingredient>
                            <itemCodeableConcept>
                                <coding>
                                    <system value="http://snomed.info/sct"/>
                                    <code value="387165009"/>
                                    <display value="Enalapril maleate (substance)"/>
                                </coding>
                            </itemCodeableConcept>
                            <strength>
                                <numerator>
                                    <value value="20"/>
                                    <unit value="mg"/>
                                </numerator>
                                <denominator>
                                    <value value="1"/>
                                </denominator>
                            </strength>
                        </ingredient>
                    </Medication>
                </contained>
                <status value="completed"/>
                <category>
                    <coding>
                        <system value="http://www.whocc.no/atc"/>
                        <code value="C"/>
                        <display value="Kardiovaskuläres System"/>
                    </coding>
                </category>
                <medicationReference>
                    <reference value="#cont1"/>
                </medicationReference>
                <subject>
                    <reference value="Patient/MonikaWegmueller"/>
                </subject>
                <informationSource>
                    <reference value="Practitioner/HausarztDupont"/>
                </informationSource>
                <!-- History -->
                <derivedFrom>
                    <reference value="MedicationStatement/A3-MedStatReniten-1x"/>
                </derivedFrom>
                <derivedFrom>
                    <reference value="Observation/A3-History-ChangeDosage"/>
                </derivedFrom>
                <derivedFrom>
                    <reference value="MedicationStatement/A3-MedStatReniten-2x"/>
                </derivedFrom>
                <reasonCode>
                    <text value="Bluthochdruck"/>
                </reasonCode>
                <dosage>
                    <text value="2 Tabletten morgens"/>
                </dosage>
                <dosage>
                    <timing>
                        <repeat>
                            <boundsPeriod>
                                <start value="2020-03-10"/>
                            </boundsPeriod>
                            <when value="CM"/>
                        </repeat>
                    </timing>
                    <route>
                        <coding>
                            <system value="urn:oid:0.4.0.127.0.16.1.1.2.1"/>
                            <code value="20053000"/>
                            <display value="Oral use"/>
                        </coding>
                    </route>
                    <doseAndRate>
                        <doseQuantity>
                            <value value="2"/>
                            <unit value="Tablette"/>
                            <system value="http://unitsofmeasure.org"/>
                            <code value="1"/>
                        </doseQuantity>
                    </doseAndRate>
                </dosage>
            </MedicationStatement>
        </resource>
    </entry>


    <!-- Reference from MedicationStatement.derivedFrom (History) -->
    <entry>
        <fullUrl value="http://test.fhir.ch/r4/MedicationStatement/A3-MedStatReniten-1x"/>
        <resource>
            <MedicationStatement xmlns="http://hl7.org/fhir">
                <id value="A3-MedStatReniten-1x"/>
                <meta>
                    <profile value="http://chmed20af.emediplan.ch/fhir/StructureDefinition/chmed20af-analyzer-medicationstatement"/>
                </meta>
                <contained>
                    <Medication xmlns="http://hl7.org/fhir">
                        <id value="cont1"/>
                        <code>
                            <coding>
                                <system value="urn:oid:2.51.1.1"/>
                                <code value="7680460380299"/>
                                <display value="RENITEN Tabl 20 mg"/>
                            </coding>
                            <text value="RENITEN Tabl 20 mg"/>
                        </code>
                        <form>
                            <coding>
                                <system value="urn:oid:0.4.0.127.0.16.1.1.2.1"/>
                                <code value="10219000"/>
                                <display value="Tablet"/>
                            </coding>
                        </form>
                        <amount>
                            <numerator>
                                <value value="98"/>
                            </numerator>
                            <denominator>
                                <value value="1"/>
                            </denominator>
                        </amount>
                        <ingredient>
                            <itemCodeableConcept>
                                <coding>
                                    <system value="http://snomed.info/sct"/>
                                    <code value="387165009"/>
                                    <display value="Enalapril maleate (substance)"/>
                                </coding>
                            </itemCodeableConcept>
                            <strength>
                                <numerator>
                                    <value value="20"/>
                                    <unit value="mg"/>
                                </numerator>
                                <denominator>
                                    <value value="1"/>
                                </denominator>
                            </strength>
                        </ingredient>
                    </Medication>
                </contained>
                <extension url="http://chmed20af.emediplan.ch/fhir/StructureDefinition/chmed20af-infoinputdocument">
                    <extension url="http://chmed20af.emediplan.ch/fhir/StructureDefinition/chmed20af-inputdocumentsource">
                        <valueString value="Cara"/>
                    </extension>
                    <extension url="http://chmed20af.emediplan.ch/fhir/StructureDefinition/chmed20af-inputdocumenttype">
                        <valueString value="Medication Card document"/>
                    </extension>
                    <extension url="http://chmed20af.emediplan.ch/fhir/StructureDefinition/chmed20af-inputdocumentdate">
                        <valueDateTime value="2020-03-10T10:00:00+01:00"/>
                    </extension>
                </extension>
                <status value="completed"/>
                <category>
                    <coding>
                        <system value="http://www.whocc.no/atc"/>
                        <code value="C"/>
                        <display value="Kardiovaskuläres System"/>
                    </coding>
                </category>
                <medicationReference>
                    <reference value="#cont1"/>
                </medicationReference>
                <subject>
                    <reference value="Patient/MonikaWegmueller"/>
                </subject>
                <informationSource>
                    <reference value="Practitioner/HausarztDupont"/>
                </informationSource>
                <reasonCode>
                    <text value="Bluthochdruck"/>
                </reasonCode>
                <dosage>
                    <text value="1 Tablette morgens"/>
                </dosage>
                <dosage>
                    <timing>
                        <repeat>
                            <boundsPeriod>
                                <start value="2020-03-10"/>
                            </boundsPeriod>
                            <when value="CM"/>
                        </repeat>
                    </timing>
                    <route>
                        <coding>
                            <system value="urn:oid:0.4.0.127.0.16.1.1.2.1"/>
                            <code value="20053000"/>
                            <display value="Oral use"/>
                        </coding>
                    </route>
                    <doseAndRate>
                        <doseQuantity>
                            <value value="1"/>
                            <unit value="Tablette"/>
                            <system value="http://unitsofmeasure.org"/>
                            <code value="1"/>
                        </doseQuantity>
                    </doseAndRate>
                </dosage>
            </MedicationStatement>
        </resource>
    </entry>

    <!-- Reference from MedicationStatement.derivedFrom (History) -->
    <entry>
        <fullUrl value="http://test.fhir.ch/r4/Observation/A3-History-ChangeDosage"/>
        <resource>
            <Observation>
                <id value="A3-History-ChangeDosage"/>
                <meta>
                    <profile value="http://chmed20af.emediplan.ch/fhir/StructureDefinition/chmed20af-analyzer-observationhistory"/>
                </meta>
                <status value="final"/>
                <code>
                    <coding>
                        <system value="urn:oid:1.3.6.1.4.1.19376.1.9.2.1"/>
                        <code value="CHANGE"/>
                    </coding>
                </code>
                <valueCodeableConcept>
                    <coding>
                        <system value="http://chmed20af.emediplan.ch/fhir/CodeSystem/chmed20af-codesystem-history-changes"/>
                        <code value="changeDosage"/>
                    </coding>
                </valueCodeableConcept>
            </Observation>
        </resource>
    </entry>

    <!-- Reference from MedicationStatement.derivedFrom (History) -->
    <entry>
        <fullUrl value="http://test.fhir.ch/r4/MedicationStatement/A3-MedStatReniten-2x"/>
        <resource>
            <MedicationStatement xmlns="http://hl7.org/fhir">
                <id value="A3-MedStatReniten-2x"/>
                <meta>
                    <profile value="http://chmed20af.emediplan.ch/fhir/StructureDefinition/chmed20af-analyzer-medicationstatement"/>
                </meta>
                <contained>
                    <Medication xmlns="http://hl7.org/fhir">
                        <id value="cont1"/>
                        <code>
                            <coding>
                                <system value="urn:oid:2.51.1.1"/>
                                <code value="7680460380299"/>
                                <display value="RENITEN Tabl 20 mg"/>
                            </coding>
                            <text value="RENITEN Tabl 20 mg"/>
                        </code>
                        <form>
                            <coding>
                                <system value="urn:oid:0.4.0.127.0.16.1.1.2.1"/>
                                <code value="10219000"/>
                                <display value="Tablet"/>
                            </coding>
                        </form>
                        <amount>
                            <numerator>
                                <value value="98"/>
                            </numerator>
                            <denominator>
                                <value value="1"/>
                            </denominator>
                        </amount>
                        <ingredient>
                            <itemCodeableConcept>
                                <coding>
                                    <system value="http://snomed.info/sct"/>
                                    <code value="387165009"/>
                                    <display value="Enalapril maleate (substance)"/>
                                </coding>
                            </itemCodeableConcept>
                            <strength>
                                <numerator>
                                    <value value="20"/>
                                    <unit value="mg"/>
                                </numerator>
                                <denominator>
                                    <value value="1"/>
                                </denominator>
                            </strength>
                        </ingredient>
                    </Medication>
                </contained>
                <extension url="http://chmed20af.emediplan.ch/fhir/StructureDefinition/chmed20af-infoinputdocument">
                    <extension url="http://chmed20af.emediplan.ch/fhir/StructureDefinition/chmed20af-inputdocumentsource">
                        <valueString value="Cara"/>
                    </extension>
                    <extension url="http://chmed20af.emediplan.ch/fhir/StructureDefinition/chmed20af-inputdocumenttype">
                        <valueString value="Medication Card document"/>
                    </extension>
                    <extension url="http://chmed20af.emediplan.ch/fhir/StructureDefinition/chmed20af-inputdocumentdate">
                        <valueDateTime value="2020-03-10T17:00:00+01:00"/>
                    </extension>
                </extension>
                <status value="completed"/>
                <category>
                    <coding>
                        <system value="http://www.whocc.no/atc"/>
                        <code value="C"/>
                        <display value="Kardiovaskuläres System"/>
                    </coding>
                </category>
                <medicationReference>
                    <reference value="#cont1"/>
                </medicationReference>
                <subject>
                    <reference value="Patient/MonikaWegmueller"/>
                </subject>
                <informationSource>
                    <reference value="Practitioner/HausarztDupont"/>
                </informationSource>
                <reasonCode>
                    <text value="Bluthochdruck"/>
                </reasonCode>
                <dosage>
                    <text value="2 Tabletten morgens"/>
                </dosage>
                <dosage>
                    <timing>
                        <repeat>
                            <boundsPeriod>
                                <start value="2020-03-10"/>
                            </boundsPeriod>
                            <when value="CM"/>
                        </repeat>
                    </timing>
                    <route>
                        <coding>
                            <system value="urn:oid:0.4.0.127.0.16.1.1.2.1"/>
                            <code value="20053000"/>
                            <display value="Oral use"/>
                        </coding>
                    </route>
                    <doseAndRate>
                        <doseQuantity>
                            <value value="2"/>
                            <unit value="Tablette"/>
                            <system value="http://unitsofmeasure.org"/>
                            <code value="1"/>
                        </doseQuantity>
                    </doseAndRate>
                </dosage>
            </MedicationStatement>
        </resource>
    </entry>
</Bundle>