<Bundle xmlns="http://hl7.org/fhir">
    <id value="A3-MedicationCard-Reniten-1x"/>
    <meta>
        <lastUpdated value="2020-04-21T11:00:00+01:00"/>
        <profile value="http://chmed20af.emediplan.ch/fhir/StructureDefinition/chmed20af-card-bundle"/>
    </meta>
    <identifier>
        <system value="urn:ietf:rfc:3986"/>
        <value value="urn:uuid:26d3dff7-ab05-4737-a49c-5eccd3359a3a"/>
    </identifier>
    <type value="document"/>
    <timestamp value="2020-03-10T10:00:00+01:00"/>
    <entry>
        <fullUrl value="http://test.fhir.ch/r4/Composition/A3-CompReniten-1x"/>
        <resource>
            <Composition>
                <id value="A3-CompReniten-1x"/>
                <language value="de-CH"/>
                <extension url="http://chmed20af.emediplan.ch/fhir/StructureDefinition/chmed20af-inputdocumentsource">
                    <valueString value="Cara"/>
                </extension>
                <extension url="http://fhir.ch/ig/ch-core/StructureDefinition/ch-ext-epr-versionnumber">
                    <valueUnsignedInt value="1"/>
                </extension>
                <extension url="http://fhir.ch/ig/ch-core/StructureDefinition/ch-ext-epr-informationrecipient">
                    <valueReference>
                        <reference value="Patient/MonikaWegmuellerRecipient"/>
                    </valueReference>
                </extension>
                <identifier>
                    <system value="urn:ietf:rfc:3986"/>
                    <value value="urn:uuid:26d3dff7-ab05-4737-a49c-5eccd3359a3a"/>
                </identifier>
                <status value="final"/>
                <type>
                    <coding>
                        <system value="http://snomed.info/sct"/>
                        <code value="721912009"/>
                        <display value="Medication summary document (record artifact)"/>
                    </coding>
                </type>
                <subject>
                    <reference value="Patient/MonikaWegmueller"/>
                </subject>
                <date value="2020-03-10T10:00:00+01:00"/>
                <author>
                    <reference value="Practitioner/HausarztDupont"/>
                </author>
                <title value="Medikationsplan"/>
                <confidentiality value="N">
                    <extension url="http://fhir.ch/ig/ch-core/StructureDefinition/ch-ext-epr-confidentialitycode">
                        <valueCodeableConcept>
                            <coding>
                                <system value="http://snomed.info/sct"/>
                                <code value="17621005"/>
                                <display value="Normally accessible"/>
                            </coding>
                        </valueCodeableConcept>
                    </extension>
                </confidentiality>
                <custodian>
                    <reference value="Organization/Custodian"/>
                </custodian>
                <section>
                    <title value="Aktuelle Medikation"/>
                    <code>
                        <coding>
                            <system value="http://loinc.org"/>
                            <code value="10160-0"/>
                            <display value="History of medication use"/>
                        </coding>
                    </code>
                    <text>
                        <status value="additional"/>
                        <div xmlns="http://www.w3.org/1999/xhtml"> Aktuelle Medikation </div>
                    </text>
                    <entry>
                        <reference value="MedicationStatement/A3-MedStatReniten-1x"/>
                    </entry>
                </section>
                <section>
                    <title value="Original representation"/>
                    <code>
                        <coding>
                            <system value="http://loinc.org"/>
                            <code value="55108-5"/>
                            <display value="Clinical presentation"/>
                        </coding>
                    </code>
                    <text>
                        <status value="generated"/>
                        <div xmlns="http://www.w3.org/1999/xhtml">
                            Representation of the original view:
                            <img src="example-pdf"/>
                        </div>
                    </text>
                    <entry>
                        <reference value="Binary/example-pdf"/>
                    </entry>
                </section>
            </Composition>
        </resource>
    </entry>
    <entry>
        <fullUrl value="http://test.fhir.ch/r4/Patient/MonikaWegmueller"/>
        <resource>
            <Patient>
                <id value="MonikaWegmueller"/>
                <identifier>
                    <type>
                        <coding>
                            <system value="http://terminology.hl7.org/CodeSystem/v2-0203"/>
                            <code value="MR"/>
                        </coding>
                    </type>
                    <system value="urn:oid:2.999"/>
                    <value value="11111111"/>
                </identifier>
                <name>
                    <family value="Wegm端ller"/>
                    <given value="Monika"/>
                </name>
                <gender value="female"/>
                <birthDate value="1943-05-15"/>
                <address>
                    <line value="Wiesenstr. 12"/>
                    <city value="Z端rich"/>
                    <postalCode value="8003"/>
                    <country value="CH"/>
                </address>
                <communication>
                    <language>
                        <coding>
                            <system value="urn:ietf:bcp:47" />
                            <code value="de-CH" />
                            <display value="German (Region=Switzerland)" />
                        </coding>
                    </language>
                    <preferred value="true" />
                </communication>
            </Patient>
        </resource>
    </entry>
    <entry>
        <fullUrl value="http://test.fhir.ch/r4/Practitioner/HausarztDupont"/>
        <resource>
            <Practitioner>
                <id value="HausarztDupont"/>
                <identifier>
                    <system value="urn:oid:2.51.1.3"/>
                    <value value="7601000234466"/>
                </identifier>
                <name>
                    <family value="Dupont"/>
                    <given value="Hausarzt"/>
                </name>
            </Practitioner>
        </resource>
    </entry>
    <entry>
        <fullUrl value="http://test.fhir.ch/r4/Organization/Custodian"/>
        <resource>
            <Organization>
                <id value="Custodian"/>
                <identifier>
                    <system value="urn:oid:2.51.1.3"/>
                    <value value="7601000234466"/>
                </identifier>
                <name value="Hausarzt"/>
            </Organization>
        </resource>
    </entry>
    <entry>
        <fullUrl value="http://test.fhir.ch/r4/Patient/MonikaWegmuellerRecipient"/>
        <resource>
            <Patient>
                <id value="MonikaWegmuellerRecipient"/>
                <name>
                    <family value="Wegm端ller"/>
                    <given value="Monika"/>
                </name>
                <address>
                    <line value="Wiesenstr. 12"/>
                    <city value="Z端rich"/>
                    <postalCode value="8003"/>
                    <country value="CH"/>
                </address>
            </Patient>
        </resource>
    </entry>
    <entry>
        <fullUrl value="http://test.fhir.ch/r4/MedicationStatement/A3-MedStatReniten-1x"/>
        <resource>
            <MedicationStatement xmlns="http://hl7.org/fhir">
                <id value="A3-MedStatReniten-1x"/>
                <contained>
                    <Medication xmlns="http://hl7.org/fhir">
                        <id value="cont1"/>
                        <code>
                            <coding>
                                <system value="urn:oid:2.51.1.1"/>
                                <code value="7680460380299"/>
                                <display value="RENITEN Tabl 20 mg"/>
                            </coding>
                            <text value="RENITEN Tabl 20 mg"/>
                        </code>
                        <form>
                            <coding>
                                <system value="urn:oid:0.4.0.127.0.16.1.1.2.1"/>
                                <code value="10219000"/>
                                <display value="Tablet"/>
                            </coding>
                        </form>
                        <amount>
                            <numerator>
                                <value value="98"/>
                                <unit value="Stk"/>
                                <system value="http://unitsofmeasure.org"/>
                                <code value="{Piece}"/>
                            </numerator>
                            <denominator>
                                <value value="1"/>
                                <unit value="Package"/>
                                <system value="http://unitsofmeasure.org"/>
                                <code value="{Package}"/>
                            </denominator>
                        </amount>
                        <ingredient>
                            <itemCodeableConcept>
                                <coding>
                                    <system value="http://snomed.info/sct"/>
                                    <code value="387165009"/>
                                    <display value="Enalapril maleate (substance)"/>
                                </coding>
                                <text value="Enalapril maleate (substance)"/>
                            </itemCodeableConcept>
                            <strength>
                                <numerator>
                                    <value value="20"/>
                                    <unit value="mg"/>
                                    <system value="http://unitsofmeasure.org"/>
                                    <code value="mg"/>
                                </numerator>
                                <denominator>
                                    <value value="1"/>
                                    <unit value="Tablet"/>
                                    <system value="http://snomed.info/sct"/>
                                    <code value="732936001"/>
                                </denominator>
                            </strength>
                        </ingredient>
                    </Medication>
                </contained>
                <identifier>
                    <system value="urn:ietf:rfc:3986"/>
                    <value value="urn:uuid:64bff866-0059-4b56-ab89-d0a3e46fddda"/>
                </identifier>
                <status value="completed"/>
                <category>
                    <coding>
                        <system value="http://www.whocc.no/atc"/>
                        <code value="C"/>
                        <display value="Kardiovaskul辰res System"/>
                    </coding>
                </category>
                <medicationReference>
                    <reference value="#cont1"/>
                </medicationReference>
                <subject>
                    <reference value="Patient/MonikaWegmueller"/>
                </subject>
                <reasonCode>
                    <text value="Bluthochdruck"/>
                </reasonCode>
                <dosage>
                    <text value="1 Tablette morgens"/>
                </dosage>
                <dosage>
                    <timing>
                        <repeat>
                            <boundsPeriod>
                                <start value="2020-03-10"/>
                            </boundsPeriod>
                            <when value="CM"/>
                        </repeat>
                    </timing>
                    <route>
                        <coding>
                            <system value="urn:oid:0.4.0.127.0.16.1.1.2.1"/>
                            <code value="20053000"/>
                            <display value="Oral use"/>
                        </coding>
                    </route>
                    <doseAndRate>
                        <doseQuantity>
                            <value value="1"/>
                            <unit value="Tablette" />
                            <system value="http://snomed.info/sct"/>
                            <code value="732936001"/>
                        </doseQuantity>
                    </doseAndRate>
                </dosage>
            </MedicationStatement>
        </resource>
    </entry>
    <entry>
      <fullUrl value="http://test.fhir.ch/r4/Binary/example-pdf"/>
      <resource>
         <Binary xmlns="http://hl7.org/fhir">
            <id value="example-pdf"/>
            <language value="de-CH"/>
            <contentType value="application/pdf"/>
            <data value=""/>
         </Binary>
      </resource>
   </entry>
</Bundle>