<Bundle xmlns="http://hl7.org/fhir">
    <id value="A6-ConsolidatedMedicationCard"/>
    <meta>
        <profile value="http://chmed20af.emediplan.ch/fhir/StructureDefinition/chmed20af-analyzer-bundle"/>
    </meta>
    <identifier>
        <system value="urn:ietf:rfc:3986"/>
        <value value="urn:uuid:26d3dff7-ab05-4737-a49c-5eccd33511a6"/>
    </identifier>
    <type value="document"/>
    <timestamp value="2020-03-01T13:00:00+01:00"/>
    <entry>
        <fullUrl value="http://test.fhir.ch/r4/Composition/A6-Analyzer"/>
        <resource>
            <Composition>
                <id value="A6-Analyzer"/>
                <status value="final"/>
                <type>
                    <coding>
                        <system value="http://snomed.info/sct"/>
                        <code value="721912009"/>
                        <display value="Medication summary document (record artifact)"/>
                    </coding>
                </type>
                <subject>
                    <reference value="Patient/MonikaWegmueller"/>
                </subject>
                <date value="2020-03-01T13:00:00+01:00"/>
                <author>
                    <reference value="Device/Analyzer"/>
                </author>
                <title value="Medikationsplan"/>
                <section>
                    <entry>
                        <reference value="MedicationStatement/A6-MedStatImigran-Tbl-Analyzer"/>
                    </entry>
                    <entry>
                        <reference value="MedicationStatement/A6-MedStatImigran-Spray-Analyzer"/>
                    </entry>
                </section>
            </Composition>
        </resource>
    </entry>
    <entry>
        <fullUrl value="http://test.fhir.ch/r4/Device/Analyzer"/>
        <resource>
            <Device>
                <id value="Analyzer"/>
                <deviceName>
                    <name value="Documedis Medical Data Analyzer CE"/>
                    <type value="user-friendly-name"/>
                </deviceName>
                <version>
                    <value value="1.0.0.0"/>
                </version>
            </Device>
        </resource>
    </entry>
    <entry>
        <fullUrl value="http://test.fhir.ch/r4/Patient/MonikaWegmueller"/>
        <resource>
            <Patient>
                <id value="MonikaWegmueller"/>
                <identifier>
                    <type>
                        <coding>
                            <system value="http://terminology.hl7.org/CodeSystem/v2-0203"/>
                            <code value="MR"/>
                        </coding>
                    </type>
                    <system value="urn:oid:2.999"/>
                    <value value="11111111"/>
                </identifier>
                <name>
                    <family value="Wegmüller"/>
                    <given value="Monika"/>
                </name>
                <gender value="female"/>
                <birthDate value="1943-05-15"/>
                <address>
                    <line value="Wiesenstr. 12"/>
                    <city value="Zürich"/>
                    <postalCode value="8003"/>
                    <country value="CH"/>
                </address>
                <communication>
                    <language>
                        <coding>
                            <system value="urn:ietf:bcp:47" />
                            <code value="de-CH" />
                            <display value="German (Region=Switzerland)" />
                        </coding>
                    </language>
                    <preferred value="true" />
                </communication>
            </Patient>
        </resource>
    </entry>
    <entry>
        <fullUrl value="http://test.fhir.ch/r4/Practitioner/SpezialistMetzler"/>
        <resource>
            <Practitioner>
                <id value="SpezialistMetzler"/>
                <identifier>
                    <system value="urn:oid:2.51.1.3"/>
                    <value value="7601000232255"/>
                </identifier>
                <name>
                    <family value="Metzler"/>
                    <given value="Spezialist"/>
                </name>
            </Practitioner>
        </resource>
    </entry>

    <!-- Reference from MedicationStatement.derivedFrom (History) -->
    <entry>
        <fullUrl value="http://test.fhir.ch/r4/MedicationStatement/A6-MedStatImigran-Tbl"/>
        <resource>
            <MedicationStatement xmlns="http://hl7.org/fhir">
                <id value="A6-MedStatImigran-Tbl"/>
                <contained>
                    <Medication xmlns="http://hl7.org/fhir">
                        <id value="cont1"/>
                        <code>
                            <coding>
                                <system value="urn:oid:2.51.1.1"/>
                                <code value="7680516850592"/>
                                <display value="IMIGRAN 50 mg Filmtabl"/>
                            </coding>
                            <text value="IMIGRAN 50 mg Filmtabl"/>
                        </code>
                        <form>
                            <coding>
                                <system value="urn:oid:0.4.0.127.0.16.1.1.2.1"/>
                                <code value="10221000"/>
                                <display value="Film-coated tablet"/>
                            </coding>
                        </form>
                        <amount>
                            <numerator>
                                <value value="12"/>
                                <unit value="Stk"/>
                                <system value="http://unitsofmeasure.org"/>
                                <code value="U{PIECE(S)}"/>
                            </numerator>
                            <denominator>
                                <value value="1"/>
                                <unit value="Package"/>
                                <system value="http://unitsofmeasure.org"/>
                                <code value="{Package}"/>
                            </denominator>
                        </amount>
                        <ingredient>
                            <itemCodeableConcept>
                                <coding>
                                    <system value="http://snomed.info/sct"/>
                                    <code value="395892000"/>
                                    <display value="Sumatriptan (substance)"/>
                                </coding>
                                <text value="Sumatriptan (substance)"/>
                            </itemCodeableConcept>
                            <strength>
                                <numerator>
                                    <value value="50"/>
                                    <unit value="mg"/>
                                    <system value="http://unitsofmeasure.org"/>
                                    <code value="mg"/>
                                </numerator>
                                <denominator>
                                    <value value="1"/>
                                    <unit value="Tablet"/>
                                    <system value="http://snomed.info/sct"/>
                                    <code value="732936001"/>
                                </denominator>
                            </strength>
                        </ingredient>
                    </Medication>
                </contained>
                <extension url="http://chmed20af.emediplan.ch/fhir/StructureDefinition/chmed20af-infoinputdocument">
                    <extension url="http://chmed20af.emediplan.ch/fhir/StructureDefinition/chmed20af-inputdocumentsource">
                        <valueString value="Cara"/>
                    </extension>
                    <extension url="http://chmed20af.emediplan.ch/fhir/StructureDefinition/chmed20af-inputdocumenttype">
                        <valueCodeableConcept>
                            <coding>
                                <system value="http://loinc.org"/>
                                <code value="56445-0"/>
                                <display value="Medication summary"/>
                            </coding>
                        </valueCodeableConcept>
                    </extension>
                    <extension url="http://chmed20af.emediplan.ch/fhir/StructureDefinition/chmed20af-inputdocumentdate">
                        <valueDateTime value="2020-02-05T09:00:00+01:00"/>
                    </extension>
                </extension>
                <identifier>
                    <system value="urn:ietf:rfc:3986"/>
                    <value value="urn:uuid:e086b71a-33e6-4c29-900e-05341112bbe5"/>
                </identifier>
                <status value="completed"/>
                <category>
                    <coding>
                        <system value="http://www.whocc.no/atc"/>
                        <code value="N"/>
                        <display value="Nervensystem"/>
                    </coding>
                </category>
                <medicationReference>
                    <reference value="#cont1"/>
                </medicationReference>
                <subject>
                    <reference value="Patient/MonikaWegmueller"/>
                </subject>
                <informationSource>
                    <reference value="Practitioner/SpezialistMetzler"/>
                </informationSource>
                <reasonCode>
                    <text value="Migräne"/>
                </reasonCode>
                <dosage>
                    <text value="2 Tabletten morgens"/>
                </dosage>
                <dosage>
                    <timing>
                        <repeat>
                            <boundsPeriod>
                                <start value="2020-02-05"/>
                            </boundsPeriod>
                            <when value="CM"/>
                        </repeat>
                    </timing>
                    <route>
                        <coding>
                            <system value="urn:oid:0.4.0.127.0.16.1.1.2.1"/>
                            <code value="20053000"/>
                            <display value="Oral use"/>
                        </coding>
                    </route>
                    <doseAndRate>
                        <doseQuantity>
                            <value value="2"/>
                            <unit value="Tablette" />
                            <system value="http://snomed.info/sct"/>
                            <code value="732936001"/>
                        </doseQuantity>
                    </doseAndRate>
                </dosage>
            </MedicationStatement>
        </resource>
    </entry>

    <!-- Reference from MedicationStatement.derivedFrom (History) -->
    <entry>
        <fullUrl value="http://test.fhir.ch/r4/MedicationStatement/A6-MedStatImigran-Spray"/>
        <resource>
            <MedicationStatement xmlns="http://hl7.org/fhir">
                <id value="A6-MedStatImigran-Spray"/>
                <contained>
                    <Medication xmlns="http://hl7.org/fhir">
                        <id value="cont1"/>
                        <code>
                            <coding>
                                <system value="urn:oid:2.51.1.1"/>
                                <code value="7680537080138"/>
                                <display value="IMIGRAN Nasenspray 10 mg"/>
                            </coding>
                            <text value="IMIGRAN Nasenspray 10 mg"/>
                        </code>
                        <form>
                            <coding>
                                <system value="urn:oid:0.4.0.127.0.16.1.1.2.1"/>
                                <code value="10808000"/>
                                <display value="Nasal spray, solution"/>
                            </coding>
                        </form>
                        <amount>
                            <numerator>
                                <value value="2"/>
                                <unit value="Stk"/>
                                <system value="http://unitsofmeasure.org"/>
                                <code value="U{PIECE(S)}"/>
                            </numerator>
                            <denominator>
                                <value value="1"/>
                                <unit value="Package"/>
                                <system value="http://unitsofmeasure.org"/>
                                <code value="{Package}"/>
                            </denominator>
                        </amount>
                        <ingredient>
                            <itemCodeableConcept>
                                <coding>
                                    <system value="http://snomed.info/sct"/>
                                    <code value="395892000"/>
                                    <display value="Sumatriptan (substance)"/>
                                </coding>
                                <text value="Sumatriptan (substance)"/>
                            </itemCodeableConcept>
                            <strength>
                                <numerator>
                                    <value value="10"/>
                                    <unit value="mg"/>
                                    <system value="http://unitsofmeasure.org"/>
                                    <code value="mg"/>
                                </numerator>
                                <denominator>
                                    <value value="1"/>
                                    <unit value="Actuation (unit of presentation)"/><!--Betätigung (Sprühstoss)-->
                                    <system value="http://snomed.info/sct"/>
                                    <code value="732981002"/>
                                </denominator>
                            </strength>
                        </ingredient>
                    </Medication>
                </contained>
                <extension url="http://chmed20af.emediplan.ch/fhir/StructureDefinition/chmed20af-infoinputdocument">
                    <extension url="http://chmed20af.emediplan.ch/fhir/StructureDefinition/chmed20af-inputdocumentsource">
                        <valueString value="Cara"/>
                    </extension>
                    <extension url="http://chmed20af.emediplan.ch/fhir/StructureDefinition/chmed20af-inputdocumenttype">
                        <valueCodeableConcept>
                            <coding>
                                <system value="http://loinc.org"/>
                                <code value="56445-0"/>
                                <display value="Medication summary"/>
                            </coding>
                        </valueCodeableConcept>
                    </extension>
                    <extension url="http://chmed20af.emediplan.ch/fhir/StructureDefinition/chmed20af-inputdocumentdate">
                        <valueDateTime value="2020-03-01T10:30:00+01:00"/>
                    </extension>
                </extension>
                <identifier>
                    <system value="urn:ietf:rfc:3986"/>
                    <value value="urn:uuid:06c23af2-fcf9-4d73-ac97-27da9186cc29"/>
                </identifier>
                <status value="completed"/>
                <category>
                    <coding>
                        <system value="http://www.whocc.no/atc"/>
                        <code value="N"/>
                        <display value="Nervensystem"/>
                    </coding>
                </category>
                <medicationReference>
                    <reference value="#cont1"/>
                </medicationReference>
                <subject>
                    <reference value="Patient/MonikaWegmueller"/>
                </subject>
                <informationSource>
                    <reference value="Practitioner/SpezialistMetzler"/>
                </informationSource>
                <reasonCode>
                    <text value="Migräne"/>
                </reasonCode>
                <dosage>
                    <text value="2 Hübe morgens"/>
                </dosage>
                <dosage>
                    <timing>
                        <repeat>
                            <boundsPeriod>
                                <start value="2020-03-01"/>
                            </boundsPeriod>
                            <when value="CM"/>
                        </repeat>
                    </timing>
                    <route>
                        <coding>
                            <system value="urn:oid:0.4.0.127.0.16.1.1.2.1"/>
                            <code value="20049000"/>
                            <display value="Nasal use"/>
                        </coding>
                    </route>
                    <doseAndRate>
                        <doseQuantity>
                            <value value="2"/>
                            <unit value="Actuation (unit of presentation)"/><!--Betätigung (Sprühstoss)-->
                            <system value="http://snomed.info/sct"/>
                            <code value="732981002"/>
                        </doseQuantity>
                    </doseAndRate>
                </dosage>
            </MedicationStatement>
        </resource>
    </entry>
    

    <!-- Section entry 1: MedicationStatement -->
    <entry>
        <fullUrl value="http://test.fhir.ch/r4/MedicationStatement/A6-MedStatImigran-Tbl-Analyzer"/>
        <resource>
            <MedicationStatement>
                <id value="A6-MedStatImigran-Tbl-Analyzer"/>
                <contained>
                    <Medication>
                        <id value="cont1"/>
                        <code>
                            <coding>
                                <system value="urn:oid:2.51.1.1"/>
                                <code value="7680516850592"/>
                                <display value="IMIGRAN 50 mg Filmtabl"/>
                            </coding>
                            <text value="IMIGRAN 50 mg Filmtabl"/>
                        </code>
                        <form>
                            <coding>
                                <system value="urn:oid:0.4.0.127.0.16.1.1.2.1"/>
                                <code value="10221000"/>
                                <display value="Film-coated tablet"/>
                            </coding>
                        </form>
                        <amount>
                            <numerator>
                                <value value="12"/>
                                <unit value="Stk"/>
                                <system value="http://unitsofmeasure.org"/>
                                <code value="U{PIECE(S)}"/>
                            </numerator>
                            <denominator>
                                <value value="1"/>
                                <unit value="Package"/>
                                <system value="http://unitsofmeasure.org"/>
                                <code value="{Package}"/>
                            </denominator>
                        </amount>
                        <ingredient>
                            <itemCodeableConcept>
                                <coding>
                                    <system value="http://snomed.info/sct"/>
                                    <code value="395892000"/>
                                    <display value="Sumatriptan (substance)"/>
                                </coding>
                                <text value="Sumatriptan (substance)"/>
                            </itemCodeableConcept>
                            <strength>
                                <numerator>
                                    <value value="50"/>
                                    <unit value="mg"/>
                                    <system value="http://unitsofmeasure.org"/>
                                    <code value="mg"/>
                                </numerator>
                                <denominator>
                                    <value value="1"/>
                                    <unit value="Tablet"/>
                                    <system value="http://snomed.info/sct"/>
                                    <code value="732936001"/>
                                </denominator>
                            </strength>
                        </ingredient>
                    </Medication>
                </contained>
                <identifier>
                    <system value="urn:ietf:rfc:3986"/>
                    <value value="urn:uuid:760a4212-deca-4212-9139-83623c816fdd"/>
                </identifier>
                <status value="completed"/>
                <category>
                    <coding>
                        <system value="http://www.whocc.no/atc"/>
                        <code value="N"/>
                        <display value="Nervensystem"/>
                    </coding>
                </category>
                <medicationReference>
                    <reference value="#cont1"/>
                </medicationReference>
                <subject>
                    <reference value="Patient/MonikaWegmueller"/>
                </subject>
                <informationSource>
                    <reference value="Practitioner/SpezialistMetzler"/>
                </informationSource>
                <!-- History -->
                <derivedFrom>
                    <reference value="MedicationStatement/A6-MedStatImigran-Tbl"/>
                </derivedFrom>
                <!--<reasonCode>
                    <text value="Migräne"/>
                </reasonCode>-->
                <dosage>
                    <text value="2 Tabletten morgens"/>
                </dosage>
                <dosage>
                    <timing>
                        <repeat>
                            <boundsPeriod>
                                <start value="2020-02-05"/>
                            </boundsPeriod>
                            <when value="CM"/>
                        </repeat>
                    </timing>
                    <route>
                        <coding>
                            <system value="urn:oid:0.4.0.127.0.16.1.1.2.1"/>
                            <code value="20053000"/>
                            <display value="Oral use"/>
                        </coding>
                    </route>
                    <doseAndRate>
                        <doseQuantity>
                            <value value="2"/>
                            <unit value="Tablette" />
                            <system value="http://snomed.info/sct"/>
                            <code value="732936001"/>
                        </doseQuantity>
                    </doseAndRate>
                </dosage>
            </MedicationStatement>
        </resource>
    </entry>

    <!-- Section entry 2: MedicationStatement -->
    <entry>
        <fullUrl value="http://test.fhir.ch/r4/MedicationStatement/A6-MedStatImigran-Spray-Analyzer"/>
        <resource>
            <MedicationStatement>
                <id value="A6-MedStatImigran-Spray-Analyzer"/>
                <contained>
                    <Medication>
                        <id value="cont1"/>
                        <code>
                            <coding>
                                <system value="urn:oid:2.51.1.1"/>
                                <code value="7680537080138"/>
                                <display value="IMIGRAN Nasenspray 10 mg"/>
                            </coding>
                            <text value="IMIGRAN Nasenspray 10 mg"/>
                        </code>
                        <form>
                            <coding>
                                <system value="urn:oid:0.4.0.127.0.16.1.1.2.1"/>
                                <code value="10808000"/>
                                <display value="Nasal spray, solution"/>
                            </coding>
                        </form>
                        <amount>
                            <numerator>
                                <value value="2"/>
                                <unit value="Stk"/>
                                <system value="http://unitsofmeasure.org"/>
                                <code value="U{PIECE(S)}"/>
                            </numerator>
                            <denominator>
                                <value value="1"/>
                                <unit value="Package"/>
                                <system value="http://unitsofmeasure.org"/>
                                <code value="{Package}"/>
                            </denominator>
                        </amount>
                        <ingredient>
                            <itemCodeableConcept>
                                <coding>
                                    <system value="http://snomed.info/sct"/>
                                    <code value="395892000"/>
                                    <display value="Sumatriptan (substance)"/>
                                </coding>
                                <text value="Sumatriptan (substance)"/>
                            </itemCodeableConcept>
                            <strength>
                                <numerator>
                                    <value value="10"/>
                                    <unit value="mg"/>
                                    <system value="http://unitsofmeasure.org"/>
                                    <code value="mg"/>
                                </numerator>
                                <denominator>
                                    <value value="1"/>
                                    <unit value="Actuation (unit of presentation)"/><!--Betätigung (Sprühstoss)-->
                                    <system value="http://snomed.info/sct"/>
                                    <code value="732981002"/>
                                </denominator>
                            </strength>
                        </ingredient>
                    </Medication>
                </contained>
                <identifier>
                    <system value="urn:ietf:rfc:3986"/>
                    <value value="urn:uuid:bc8071ce-2b57-4794-98e0-713feff77e78"/>
                </identifier>
                <status value="completed"/>
                <category>
                    <coding>
                        <system value="http://www.whocc.no/atc"/>
                        <code value="N"/>
                        <display value="Nervensystem"/>
                    </coding>
                </category>
                <medicationReference>
                    <reference value="#cont1"/>
                </medicationReference>
                <subject>
                    <reference value="Patient/MonikaWegmueller"/>
                </subject>
                <informationSource>
                    <reference value="Practitioner/SpezialistMetzler"/>
                </informationSource>
                <!-- History -->
                <derivedFrom>
                    <reference value="MedicationStatement/A6-MedStatImigran-Tbl"/>
                </derivedFrom>
                <derivedFrom>
                    <reference value="Observation/A6-History-ChangeROA"/>
                </derivedFrom>
                <derivedFrom>
                    <reference value="MedicationStatement/A6-MedStatImigran-Spray"/>
                </derivedFrom>
                <!--<reasonCode>
                    <text value="Migräne"/>
                </reasonCode>-->
                <dosage>
                    <text value="2 Hübe morgens"/>
                </dosage>
                <dosage>
                    <timing>
                        <repeat>
                            <boundsPeriod>
                                <start value="2020-03-01"/>
                            </boundsPeriod>
                            <when value="CM"/>
                        </repeat>
                    </timing>
                    <route>
                        <coding>
                            <system value="urn:oid:0.4.0.127.0.16.1.1.2.1"/>
                            <code value="20049000"/>
                            <display value="Nasal use"/>
                        </coding>
                    </route>
                    <doseAndRate>
                        <doseQuantity>
                            <value value="2"/>
                            <unit value="Actuation (unit of presentation)"/><!--Betätigung (Sprühstoss)-->
                            <system value="http://snomed.info/sct"/>
                            <code value="732981002"/>
                        </doseQuantity>
                    </doseAndRate>
                </dosage>
            </MedicationStatement>
        </resource>
    </entry>

    <!-- Reference from MedicationStatement.derivedFrom (History) -->
    <entry>
        <fullUrl value="http://test.fhir.ch/r4/Observation/A6-History-ChangeROA"/>
        <resource>
            <Observation>
                <id value="A6-History-ChangeROA"/>
                <status value="final"/>
                <code>
                    <coding>
                        <system value="urn:oid:1.3.6.1.4.1.19376.1.9.2.1"/>
                        <code value="CHANGE"/>
                    </coding>
                </code>
                <valueCodeableConcept>
                    <coding>
                        <system value="http://chmed20af.emediplan.ch/fhir/CodeSystem/chmed20af-codesystem-history-changes"/>
                        <code value="changeROA"/>
                    </coding>
                </valueCodeableConcept>
            </Observation>
        </resource>
    </entry>
</Bundle>