<Bundle xmlns="http://hl7.org/fhir">
    <id value="A7-ConsolidatedMedicationCard"/>
    <meta>
        <profile value="http://chmed20af.emediplan.ch/fhir/StructureDefinition/chmed20af-analyzer-bundle"/>
    </meta>
    <identifier>
        <system value="urn:ietf:rfc:3986"/>
        <value value="urn:uuid:26d3dff7-ab05-4737-a49c-5eccd33511a7"/>
    </identifier>
    <type value="document"/>
    <timestamp value="2020-02-01T09:30:00+01:00"/>
    <entry>
        <fullUrl value="http://test.fhir.ch/r4/Composition/A7-Analyzer"/>
        <resource>
            <Composition>
                <id value="A7-Analyzer"/>
                <identifier>
                    <system value="urn:ietf:rfc:3986"/>
                    <value value="urn:uuid:26d3dff7-ab05-4737-a49c-5eccd33511a7"/>
                </identifier>
                <status value="final"/>
                <type>
                    <coding>
                        <system value="http://snomed.info/sct"/>
                        <code value="721912009"/>
                        <display value="Medication summary document (record artifact)"/>
                    </coding>
                </type>
                <subject>
                    <reference value="Patient/MonikaWegmueller"/>
                </subject>
                <date value="2020-02-01T09:30:00+01:00"/>
                <author>
                    <reference value="Device/Analyzer"/>
                </author>
                <title value="Medikationsplan"/>
                <section>
                    <entry>
                        <reference value="MedicationStatement/A7-MedStatBrufen-600-Analyzer"/>
                    </entry>
                    <entry>
                        <reference value="MedicationStatement/A7-MedStatBrufenRetard-800-Analyzer"/>
                    </entry>
                </section>
            </Composition>
        </resource>
    </entry>
    <entry>
        <fullUrl value="http://test.fhir.ch/r4/Device/Analyzer"/>
        <resource>
            <Device>
                <id value="Analyzer"/>
                <deviceName>
                    <name value="Documedis Medical Data Analyzer CE"/>
                    <type value="user-friendly-name"/>
                </deviceName>
                <version>
                    <value value="1.0.0.0"/>
                </version>
            </Device>
        </resource>
    </entry>
    <entry>
        <fullUrl value="http://test.fhir.ch/r4/Patient/MonikaWegmueller"/>
        <resource>
            <Patient>
                <id value="MonikaWegmueller"/>
                <identifier>
                    <type>
                        <coding>
                            <system value="http://terminology.hl7.org/CodeSystem/v2-0203"/>
                            <code value="MR"/>
                        </coding>
                    </type>
                    <system value="urn:oid:2.999"/>
                    <value value="11111111"/>
                </identifier>
                <name>
                    <family value="Wegmüller"/>
                    <given value="Monika"/>
                </name>
                <gender value="female"/>
                <birthDate value="1943-05-15"/>
                <address>
                    <line value="Wiesenstr. 12"/>
                    <city value="Zürich"/>
                    <postalCode value="8003"/>
                    <country value="CH"/>
                </address>
                <communication>
                    <language>
                        <coding>
                            <system value="urn:ietf:bcp:47" />
                            <code value="de-CH" />
                            <display value="German (Region=Switzerland)" />
                        </coding>
                    </language>
                    <preferred value="true" />
                </communication>
            </Patient>
        </resource>
    </entry>
    <entry>
        <fullUrl value="http://test.fhir.ch/r4/Practitioner/HausarztDupont"/>
        <resource>
            <Practitioner>
                <id value="HausarztDupont"/>
                <identifier>
                    <system value="urn:oid:2.51.1.3"/>
                    <value value="7601000234466"/>
                </identifier>
                <name>
                    <family value="Dupont"/>
                    <given value="Hausarzt"/>
                </name>
            </Practitioner>
        </resource>
    </entry>

    <!-- Reference from MedicationStatement.derivedFrom (History) -->
    <entry>
        <fullUrl value="http://test.fhir.ch/r4/MedicationStatement/A7-MedStatBrufen-600"/>
        <resource>
            <MedicationStatement xmlns="http://hl7.org/fhir">
                <id value="A7-MedStatBrufen-600"/>
                <contained>
                    <Medication xmlns="http://hl7.org/fhir">
                        <id value="cont1"/>
                        <code>
                            <coding>
                                <system value="urn:oid:2.51.1.1"/>
                                <code value="7680450311951"/>
                                <display value="Brufen 600 mg Filmtabl"/>
                            </coding>
                            <text value="Brufen 600 mg Filmtabl"/>
                        </code>
                        <form>
                            <coding>
                                <system value="urn:oid:0.4.0.127.0.16.1.1.2.1"/>
                                <code value="10221000"/>
                                <display value="Film-coated tablet"/>
                            </coding>
                        </form>
                        <amount>
                            <numerator>
                                <value value="20"/>
                                <unit value="Stk"/>
                                <system value="http://unitsofmeasure.org"/>
                                <code value="{Piece}"/>
                            </numerator>
                            <denominator>
                                <value value="1"/>
                                <unit value="Package"/>
                                <system value="http://unitsofmeasure.org"/>
                                <code value="{Package}"/>
                            </denominator>
                        </amount>
                        <ingredient>
                            <itemCodeableConcept>
                                <coding>
                                    <system value="http://snomed.info/sct"/>
                                    <code value="387207008"/>
                                    <display value="Ibuprofen (substance)"/>
                                </coding>
                                <text value="Ibuprofen (substance)"/>
                            </itemCodeableConcept>
                            <strength>
                                <numerator>
                                    <value value="600"/>
                                    <unit value="mg"/>
                                    <system value="http://unitsofmeasure.org"/>
                                    <code value="mg"/>
                                </numerator>
                                <denominator>
                                    <value value="1"/>
                                    <unit value="Tablet"/>
                                    <system value="http://snomed.info/sct"/>
                                    <code value="732936001"/>
                                </denominator>
                            </strength>
                        </ingredient>
                    </Medication>
                </contained>
                <extension url="http://chmed20af.emediplan.ch/fhir/StructureDefinition/chmed20af-infoinputdocument">
                    <extension url="http://chmed20af.emediplan.ch/fhir/StructureDefinition/chmed20af-inputdocumentsource">
                        <valueString value="Cara"/>
                    </extension>
                    <extension url="http://chmed20af.emediplan.ch/fhir/StructureDefinition/chmed20af-inputdocumenttype">
                        <valueCodeableConcept>
                            <coding>
                                <system value="http://loinc.org"/>
                                <code value="56445-0"/>
                                <display value="Medication summary"/>
                            </coding>
                        </valueCodeableConcept>
                    </extension>
                    <extension url="http://chmed20af.emediplan.ch/fhir/StructureDefinition/chmed20af-inputdocumentdate">
                        <valueDateTime value="2020-02-01T09:00:00+01:00"/>
                    </extension>
                </extension>
                <identifier>
                    <system value="urn:ietf:rfc:3986"/>
                    <value value="urn:uuid:d0506dca-64e6-464a-862a-15cdb40b2796"/>
                </identifier>
                <status value="completed"/>
                <category>
                    <coding>
                        <system value="http://www.whocc.no/atc"/>
                        <code value="M"/>
                        <display value="Muskel- und Skelettsystem"/>
                    </coding>
                </category>
                <medicationReference>
                    <reference value="#cont1"/>
                </medicationReference>
                <subject>
                    <reference value="Patient/MonikaWegmueller"/>
                </subject>
                <informationSource>
                    <reference value="Practitioner/HausarztDupont"/>
                </informationSource>
                <reasonCode>
                    <text value="Schmerzen"/>
                </reasonCode>
                <dosage>
                    <text value="1 Tablette morgens"/>
                </dosage>
                <dosage>
                    <timing>
                        <repeat>
                            <boundsPeriod>
                                <start value="2020-02-01"/>
                            </boundsPeriod>
                            <when value="CM"/>
                        </repeat>
                    </timing>
                    <route>
                        <coding>
                            <system value="urn:oid:0.4.0.127.0.16.1.1.2.1"/>
                            <code value="20053000"/>
                            <display value="Oral use"/>
                        </coding>
                    </route>
                    <doseAndRate>
                        <doseQuantity>
                            <value value="1"/>
                            <unit value="Tablette" />
                            <system value="http://snomed.info/sct"/>
                            <code value="732936001"/>
                        </doseQuantity>
                    </doseAndRate>
                </dosage>
            </MedicationStatement>
        </resource>
    </entry>
    <!-- Reference from MedicationStatement.derivedFrom (History) -->
    <entry>
        <fullUrl value="http://test.fhir.ch/r4/MedicationStatement/A7-MedStatBrufenRetard-800"/>
        <resource>
            <MedicationStatement xmlns="http://hl7.org/fhir">
                <id value="A7-MedStatBrufenRetard-800"/>
                <contained>
                    <Medication xmlns="http://hl7.org/fhir">
                        <id value="cont1"/>
                        <code>
                            <coding>
                                <system value="urn:oid:2.51.1.1"/>
                                <code value="7680500720610"/>
                                <display value="Brufen retard 800 mg Filmtabl"/>
                            </coding>
                            <text value="Brufen retard 800 mg Filmtabl"/>
                        </code>
                        <form>
                            <coding>
                                <system value="urn:oid:0.4.0.127.0.16.1.1.2.1"/>
                                <code value="10221000"/>
                                <display value="Film-coated tablet"/>
                            </coding>
                        </form>
                        <amount>
                            <numerator>
                                <value value="20"/>
                                <unit value="Stk"/>
                                <system value="http://unitsofmeasure.org"/>
                                <code value="{Piece}"/>
                            </numerator>
                            <denominator>
                                <value value="1"/>
                                <unit value="Package"/>
                                <system value="http://unitsofmeasure.org"/>
                                <code value="{Package}"/>
                            </denominator>
                        </amount>
                        <ingredient>
                            <itemCodeableConcept>
                                <coding>
                                    <system value="http://snomed.info/sct"/>
                                    <code value="387207008"/>
                                    <display value="Ibuprofen (substance)"/>
                                </coding>
                                <text value="Ibuprofen (substance)"/>
                            </itemCodeableConcept>
                            <strength>
                                <numerator>
                                    <value value="800"/>
                                    <unit value="mg"/>
                                    <system value="http://unitsofmeasure.org"/>
                                    <code value="mg"/>
                                </numerator>
                                <denominator>
                                    <value value="1"/>
                                    <unit value="Tablet"/>
                                    <system value="http://snomed.info/sct"/>
                                    <code value="732936001"/>
                                </denominator>
                            </strength>
                        </ingredient>
                    </Medication>
                </contained>
                <extension url="http://chmed20af.emediplan.ch/fhir/StructureDefinition/chmed20af-infoinputdocument">
                    <extension url="http://chmed20af.emediplan.ch/fhir/StructureDefinition/chmed20af-inputdocumentsource">
                        <valueString value="Cara"/>
                    </extension>
                    <extension url="http://chmed20af.emediplan.ch/fhir/StructureDefinition/chmed20af-inputdocumenttype">
                        <valueCodeableConcept>
                            <coding>
                                <system value="http://loinc.org"/>
                                <code value="56445-0"/>
                                <display value="Medication summary"/>
                            </coding>
                        </valueCodeableConcept>
                    </extension>
                    <extension url="http://chmed20af.emediplan.ch/fhir/StructureDefinition/chmed20af-inputdocumentdate">
                        <valueDateTime value="2020-02-01T09:15:00+01:00"/>
                    </extension>
                </extension>
                <identifier>
                    <system value="urn:ietf:rfc:3986"/>
                    <value value="urn:uuid:d4745784-4409-48d1-a332-92077c804ac3"/>
                </identifier>
                <status value="completed"/>
                <category>
                    <coding>
                        <system value="http://www.whocc.no/atc"/>
                        <code value="M"/>
                        <display value="Muskel- und Skelettsystem"/>
                    </coding>
                </category>
                <medicationReference>
                    <reference value="#cont1"/>
                </medicationReference>
                <subject>
                    <reference value="Patient/MonikaWegmueller"/>
                </subject>
                <informationSource>
                    <reference value="Practitioner/HausarztDupont"/>
                </informationSource>
                <reasonCode>
                    <text value="Schmerzen"/>
                </reasonCode>
                <dosage>
                    <text value="1 Tablette morgens"/>
                </dosage>
                <dosage>
                    <timing>
                        <repeat>
                            <boundsPeriod>
                                <start value="2020-02-01"/>
                            </boundsPeriod>
                            <when value="CM"/>
                        </repeat>
                    </timing>
                    <route>
                        <coding>
                            <system value="urn:oid:0.4.0.127.0.16.1.1.2.1"/>
                            <code value="20053000"/>
                            <display value="Oral use"/>
                        </coding>
                    </route>
                    <doseAndRate>
                        <doseQuantity>
                            <value value="1"/>
                            <unit value="Tablette" />
                            <system value="http://snomed.info/sct"/>
                            <code value="732936001"/>
                        </doseQuantity>
                    </doseAndRate>
                </dosage>
            </MedicationStatement>
        </resource>
    </entry>

    <!-- Section entry 1: MedicationStatement -->
    <entry>
        <fullUrl value="http://test.fhir.ch/r4/MedicationStatement/A7-MedStatBrufen-600-Analyzer"/>
        <resource>
            <MedicationStatement>
                <id value="A7-MedStatBrufen-600-Analyzer"/>
                <contained>
                    <Medication>
                        <id value="cont1"/>
                        <code>
                            <coding>
                                <system value="urn:oid:2.51.1.1"/>
                                <code value="7680450311951"/>
                                <display value="Brufen 600 mg Filmtabl"/>
                            </coding>
                            <text value="Brufen 600 mg Filmtabl"/>
                        </code>
                        <form>
                            <coding>
                                <system value="urn:oid:0.4.0.127.0.16.1.1.2.1"/>
                                <code value="10221000"/>
                                <display value="Film-coated tablet"/>
                            </coding>
                        </form>
                        <amount>
                            <numerator>
                                <value value="20"/>
                                <unit value="Stk"/>
                                <system value="http://unitsofmeasure.org"/>
                                <code value="{Piece}"/>
                            </numerator>
                            <denominator>
                                <value value="1"/>
                                <unit value="Package"/>
                                <system value="http://unitsofmeasure.org"/>
                                <code value="{Package}"/>
                            </denominator>
                        </amount>
                        <ingredient>
                            <itemCodeableConcept>
                                <coding>
                                    <system value="http://snomed.info/sct"/>
                                    <code value="387207008"/>
                                    <display value="Ibuprofen (substance)"/>
                                </coding>
                                <text value="Ibuprofen (substance)"/>
                            </itemCodeableConcept>
                            <strength>
                                <numerator>
                                    <value value="600"/>
                                    <unit value="mg"/>
                                    <system value="http://unitsofmeasure.org"/>
                                    <code value="mg"/>
                                </numerator>
                                <denominator>
                                    <value value="1"/>
                                    <unit value="Tablet"/>
                                    <system value="http://snomed.info/sct"/>
                                    <code value="732936001"/>
                                </denominator>
                            </strength>
                        </ingredient>
                    </Medication>
                </contained>
                <identifier>
                    <system value="urn:ietf:rfc:3986"/>
                    <value value="urn:uuid:60999d89-95fb-43b2-aa15-22e101a7ae40"/>
                </identifier>
                <status value="completed"/>
                <category>
                    <coding>
                        <system value="http://www.whocc.no/atc"/>
                        <code value="M"/>
                        <display value="Muskel- und Skelettsystem"/>
                    </coding>
                </category>
                <medicationReference>
                    <reference value="#cont1"/>
                </medicationReference>
                <subject>
                    <reference value="Patient/MonikaWegmueller"/>
                </subject>
                <informationSource>
                    <reference value="Practitioner/HausarztDupont"/>
                </informationSource>
                <!-- History -->
                <derivedFrom>
                    <reference value="MedicationStatement/A7-MedStatBrufen-600"/>
                </derivedFrom>
                <!--<reasonCode>
                    <text value="Schmerzen"/>
                </reasonCode>-->
                <dosage>
                    <text value="1 Tablette morgens"/>
                </dosage>
                <dosage>
                    <timing>
                        <repeat>
                            <boundsPeriod>
                                <start value="2020-02-01"/>
                            </boundsPeriod>
                            <when value="CM"/>
                        </repeat>
                    </timing>
                    <route>
                        <coding>
                            <system value="urn:oid:0.4.0.127.0.16.1.1.2.1"/>
                            <code value="20053000"/>
                            <display value="Oral use"/>
                        </coding>
                    </route>
                    <doseAndRate>
                        <doseQuantity>
                            <value value="1"/>
                            <unit value="Tablette" />
                            <system value="http://snomed.info/sct"/>
                            <code value="732936001"/>
                        </doseQuantity>
                    </doseAndRate>
                </dosage>
            </MedicationStatement>
        </resource>
    </entry>

    <!-- Section entry 2: MedicationStatement -->
    <entry>
        <fullUrl value="http://test.fhir.ch/r4/MedicationStatement/A7-MedStatBrufenRetard-800-Analyzer"/>
        <resource>
            <MedicationStatement>
                <id value="A7-MedStatBrufenRetard-800-Analyzer"/>
                <contained>
                    <Medication>
                        <id value="cont1"/>
                        <code>
                            <coding>
                                <system value="urn:oid:2.51.1.1"/>
                                <code value="7680500720610"/>
                                <display value="Brufen retard 800 mg Filmtabl"/>
                            </coding>
                            <text value="Brufen retard 800 mg Filmtabl"/>
                        </code>
                        <form>
                            <coding>
                                <system value="urn:oid:0.4.0.127.0.16.1.1.2.1"/>
                                <code value="10221000"/>
                                <display value="Film-coated tablet"/>
                            </coding>
                        </form>
                        <amount>
                            <numerator>
                                <value value="20"/>
                                <unit value="Stk"/>
                                <system value="http://unitsofmeasure.org"/>
                                <code value="{Piece}"/>
                            </numerator>
                            <denominator>
                                <value value="1"/>
                                <unit value="Package"/>
                                <system value="http://unitsofmeasure.org"/>
                                <code value="{Package}"/>
                            </denominator>
                        </amount>
                        <ingredient>
                            <itemCodeableConcept>
                                <coding>
                                    <system value="http://snomed.info/sct"/>
                                    <code value="387207008"/>
                                    <display value="Ibuprofen (substance)"/>
                                </coding>
                                <text value="Ibuprofen (substance)"/>
                            </itemCodeableConcept>
                            <strength>
                                <numerator>
                                    <value value="800"/>
                                    <unit value="mg"/>
                                    <system value="http://unitsofmeasure.org"/>
                                    <code value="mg"/>
                                </numerator>
                                <denominator>
                                    <value value="1"/>
                                    <unit value="Tablet"/>
                                    <system value="http://snomed.info/sct"/>
                                    <code value="732936001"/>
                                </denominator>
                            </strength>
                        </ingredient>
                    </Medication>
                </contained>
                <identifier>
                    <system value="urn:ietf:rfc:3986"/>
                    <value value="urn:uuid:de1a022c-171c-4bdb-b51a-aaa4f0cd850c"/>
                </identifier>
                <status value="completed"/>
                <category>
                    <coding>
                        <system value="http://www.whocc.no/atc"/>
                        <code value="M"/>
                        <display value="Muskel- und Skelettsystem"/>
                    </coding>
                </category>
                <medicationReference>
                    <reference value="#cont1"/>
                </medicationReference>
                <subject>
                    <reference value="Patient/MonikaWegmueller"/>
                </subject>
                <informationSource>
                    <reference value="Practitioner/HausarztDupont"/>
                </informationSource>
                <!-- History -->
                <derivedFrom>
                    <reference value="MedicationStatement/A7-MedStatBrufen-600"/>
                </derivedFrom>
                <derivedFrom>
                    <reference value="Observation/A7-History-ChangeGalenic"/>
                </derivedFrom>
                <derivedFrom>
                    <reference value="MedicationStatement/A7-MedStatBrufenRetard-800"/>
                </derivedFrom>
                <!--<reasonCode>
                    <text value="Schmerzen"/>
                </reasonCode>-->
                <dosage>
                    <text value="1 Tablette morgens"/>
                </dosage>
                <dosage>
                    <timing>
                        <repeat>
                            <boundsPeriod>
                                <start value="2020-02-01"/>
                            </boundsPeriod>
                            <when value="CM"/>
                        </repeat>
                    </timing>
                    <route>
                        <coding>
                            <system value="urn:oid:0.4.0.127.0.16.1.1.2.1"/>
                            <code value="20053000"/>
                            <display value="Oral use"/>
                        </coding>
                    </route>
                    <doseAndRate>
                        <doseQuantity>
                            <value value="1"/>
                            <unit value="Tablette" />
                            <system value="http://snomed.info/sct"/>
                            <code value="732936001"/>
                        </doseQuantity>
                    </doseAndRate>
                </dosage>
            </MedicationStatement>
        </resource>
    </entry>

    <!-- Reference from MedicationStatement.derivedFrom (History) -->
    <entry>
        <fullUrl value="http://test.fhir.ch/r4/Observation/A7-History-ChangeGalenic"/>
        <resource>
            <Observation>
                <id value="A7-History-ChangeGalenic"/>
                <identifier>
                    <system value="urn:ietf:rfc:3986"/>
                    <value value="urn:uuid:05dc7189-58e6-4222-85a1-8bf4a1cb2546"/>
                </identifier>
                <status value="final"/>
                <code>
                    <coding>
                        <system value="urn:oid:1.3.6.1.4.1.19376.1.9.2.1"/>
                        <code value="CHANGE"/>
                    </coding>
                </code>
                <valueCodeableConcept>
                    <coding>
                        <system value="http://chmed20af.emediplan.ch/fhir/CodeSystem/chmed20af-codesystem-history-changes"/>
                        <code value="changeGalenic"/>
                    </coding>
                </valueCodeableConcept>
            </Observation>
        </resource>
    </entry>
</Bundle>