<Bundle xmlns="http://hl7.org/fhir">
    <id value="BeloczokMTP-ConsolidatedMedicationCard"/>
    <meta>
        <profile value="http://chmed20af.emediplan.ch/fhir/StructureDefinition/chmed20af-analyzer-bundle"/>
    </meta>
    <identifier>
        <system value="urn:ietf:rfc:3986"/>
        <value value="urn:uuid:26d3dff7-ab05-4737-a49c-5eccd3353339"/>
    </identifier>
    <type value="document"/>
    <timestamp value="2020-04-03T12:00:00.000+00:00"/>
    <entry>
        <fullUrl value="http://test.fhir.ch/r4/Composition/2-3-Analyzer"/>
        <resource>
            <Composition>
                <id value="2-3-Analyzer"/>
                <identifier>
                    <system value="urn:ietf:rfc:3986"/>
                    <value value="urn:uuid:26d3dff7-ab05-4737-a49c-5eccd3353339"/>
                </identifier>
                <status value="final"/>
                <type>
                    <coding>
                        <system value="http://snomed.info/sct"/>
                        <code value="721912009"/>
                        <display value="Medication summary document (record artifact)"/>
                    </coding>
                </type>
                <subject>
                    <reference value="Patient/MonikaWegmueller"/>
                </subject>
                <date value="2020-04-03T12:00:00.000+00:00"/>
                <author>
                    <reference value="Device/Analyzer"/>
                </author>
                <title value="Medikationsplan"/>
                <section>
                    <entry>
                        <reference value="MedicationStatement/2-3-MedStatBeloczok-Analyzer"/>
                        <!-- neues Medi (Entscheid) -->
                    </entry>
                </section>
            </Composition>
        </resource>
    </entry>
    <entry>
        <fullUrl value="http://test.fhir.ch/r4/Device/Analyzer"/>
        <resource>
            <Device>
                <id value="Analyzer"/>
                <deviceName>
                    <name value="Documedis Medical Data Analyzer CE"/>
                    <type value="user-friendly-name"/>
                </deviceName>
                <version>
                    <value value="1.0.0.0"/>
                </version>
            </Device>
        </resource>
    </entry>
    <entry>
        <fullUrl value="http://test.fhir.ch/r4/Patient/MonikaWegmueller"/>
        <resource>
            <Patient>
                <id value="MonikaWegmueller"/>
                <identifier>
                    <type>
                        <coding>
                            <system value="http://terminology.hl7.org/CodeSystem/v2-0203"/>
                            <code value="MR"/>
                        </coding>
                    </type>
                    <system value="urn:oid:2.999"/>
                    <value value="11111111"/>
                </identifier>
                <name>
                    <family value="Wegmüller"/>
                    <given value="Monika"/>
                </name>
                <gender value="female"/>
                <birthDate value="1943-05-15"/>
                <address>
                    <line value="Wiesenstr. 12"/>
                    <city value="Zürich"/>
                    <postalCode value="8003"/>
                    <country value="CH"/>
                </address>
            </Patient>
        </resource>
    </entry>
    <entry>
        <fullUrl value="http://test.fhir.ch/r4/Practitioner/FamilienHausarzt"/>
        <resource>
            <Practitioner>
                <id value="FamilienHausarzt"/>
                <identifier>
                    <system value="urn:oid:2.51.1.3"/>
                    <value value="7601000234438"/>
                </identifier>
                <name>
                    <family value="Hausarzt"/>
                    <given value="Familien"/>
                </name>
            </Practitioner>
        </resource>
    </entry>

    <!-- Reference from MedicationStatement.derivedFrom (History) -->
    <entry>
        <fullUrl value="http://test.fhir.ch/r4/MedicationStatement/2-3-MedStatBeloczok"/>
        <resource>
            <MedicationStatement>
                <id value="2-3-MedStatBeloczok"/>
                <contained>
                    <Medication>
                        <id value="med"/>
                        <code>
                            <coding>
                                <system value="urn:oid:2.51.1.1"/>
                                <code value="7680521101306"/>
                                <display value="BELOC ZOK Ret Tabl 50 mg 30 Stk"/>
                            </coding>
                            <text value="BELOC ZOK Ret Tabl 50 mg"/>
                        </code>
                        <form>
                            <coding>
                                <system value="urn:oid:0.4.0.127.0.16.1.1.2.1"/>
                                <code value="10219000"/>
                                <display value="Tablet"/>
                            </coding>
                        </form>
                        <amount>
                            <numerator>
                                <value value="30"/>
                                <unit value="Stk"/>
                                <system value="http://unitsofmeasure.org"/>
                                <code value="U{PIECE(S)}"/>
                            </numerator>
                            <denominator>
                                <value value="1"/>
                                <unit value="Package"/>
                                <system value="http://unitsofmeasure.org"/>
                                <code value="{Package}"/>
                            </denominator>
                        </amount>
                        <ingredient>
                            <itemCodeableConcept>
                                <coding>
                                    <system value="http://snomed.info/sct"/>
                                    <code value="372826007"/>
                                    <display value="Metoprolol (substance)"/>
                                </coding>
                                <text value="Metoprolol"/>
                            </itemCodeableConcept>
                            <strength>
                                <numerator>
                                    <value value="50"/>
                                    <unit value="mg"/>
                                    <system value="http://unitsofmeasure.org"/>
                                    <code value="mg"/>
                                </numerator>
                                <denominator>
                                    <value value="1"/>
                                    <unit value="Tablet"/>
                                    <system value="http://snomed.info/sct"/>
                                    <code value="732936001"/>
                                </denominator>
                            </strength>
                        </ingredient>
                    </Medication>
                </contained>
                <extension url="http://chmed20af.emediplan.ch/fhir/StructureDefinition/chmed20af-infoinputdocument">
                    <extension url="http://chmed20af.emediplan.ch/fhir/StructureDefinition/chmed20af-inputdocumentsource">
                        <valueString value="EPD"/>
                    </extension>
                    <extension url="http://chmed20af.emediplan.ch/fhir/StructureDefinition/chmed20af-inputdocumenttype">
                        <valueCodeableConcept>
                            <coding>
                                <system value="http://loinc.org"/>
                                <code value="77603-9"/>
                                <display value="Medication treatment plan.extended"/>
                            </coding>
                        </valueCodeableConcept>
                    </extension>
                    <extension url="http://chmed20af.emediplan.ch/fhir/StructureDefinition/chmed20af-inputdocumentdate">
                        <valueDateTime value="2012-02-04T14:00:00+01:00"/>
                    </extension>
                </extension>
                <identifier>
                    <system value="urn:ietf:rfc:3986"/>
                    <value value="urn:uuid:17931678-20b4-11e6-b67b-9e71128cca77"/>
                </identifier>
                <status value="completed"/>
                <category>
                    <coding>
                        <system value="http://www.whocc.no/atc"/>
                        <code value="C"/>
                        <display value="Kardiovaskuläres System"/>
                    </coding>
                </category>
                <medicationReference>
                    <reference value="#med"/>
                </medicationReference>
                <subject>
                    <reference value="Patient/MonikaWegmueller"/>
                </subject>
                <informationSource>
                    <reference value="Practitioner/FamilienHausarzt"/>
                </informationSource>
                <reasonCode>
                    <text value="Bluthochdruck"/>
                </reasonCode>
                <note>
                    <text value="-"/>
                </note>
                <dosage>
                    <text value="Morgens 1 und abends 1/2 Tablette nehmen"/>
                </dosage>
                <dosage>
                    <extension url="http://fhir.ch/ig/ch-emed/StructureDefinition/ch-emed-ext-dosagetype">
                        <valueIdentifier>
                            <value value="1.3.6.1.4.1.19376.1.5.3.1.4.9"/>
                        </valueIdentifier>
                    </extension>
                    <sequence value="1"/>
                    <timing>
                        <repeat>
                            <boundsPeriod>
                                <start value="2012-02-04"/>
                            </boundsPeriod>
                            <when value="ACM"/>
                        </repeat>
                    </timing>
                    <route>
                        <coding>
                            <system value="urn:oid:0.4.0.127.0.16.1.1.2.1"/>
                            <code value="20053000"/>
                            <display value="Oral use"/>
                        </coding>
                    </route>
                    <doseAndRate>
                        <doseQuantity>
                            <value value="1"/>
                            <unit value="Tablette" />
                            <system value="http://snomed.info/sct"/>
                            <code value="732936001"/>
                        </doseQuantity>
                    </doseAndRate>
                </dosage>
                <dosage>
                    <extension url="http://fhir.ch/ig/ch-emed/StructureDefinition/ch-emed-ext-dosagetype">
                        <valueIdentifier>
                            <value value="1.3.6.1.4.1.19376.1.5.3.1.4.9"/>
                        </valueIdentifier>
                    </extension>
                    <sequence value="2"/>
                    <timing>
                        <repeat>
                            <boundsPeriod>
                                <start value="2012-02-04"/>
                            </boundsPeriod>
                            <when value="ACV"/>
                        </repeat>
                    </timing>
                    <route>
                        <coding>
                            <system value="urn:oid:0.4.0.127.0.16.1.1.2.1"/>
                            <code value="20053000"/>
                            <display value="Oral use"/>
                        </coding>
                    </route>
                    <doseAndRate>
                        <doseQuantity>
                            <value value="0.5"/>
                            <unit value="Tablette" />
                            <system value="http://snomed.info/sct"/>
                            <code value="732936001"/>
                        </doseQuantity>
                    </doseAndRate>
                </dosage>
            </MedicationStatement>
        </resource>
    </entry>

    <!-- Section entry: MedicationStatement -->
    <entry>
        <fullUrl value="http://test.fhir.ch/r4/MedicationStatement/2-3-MedStatBeloczok-Analyzer"/>
        <resource>
            <MedicationStatement>
                <id value="2-3-MedStatBeloczok-Analyzer"/>
                <contained>
                    <Medication>
                        <id value="med"/>
                        <code>
                            <coding>
                                <system value="urn:oid:2.51.1.1"/>
                                <code value="7680521101306"/>
                                <display value="BELOC ZOK Ret Tabl 50 mg 30 Stk"/>
                            </coding>
                            <text value="BELOC ZOK Ret Tabl 50 mg"/>
                        </code>
                        <form>
                            <coding>
                                <system value="urn:oid:0.4.0.127.0.16.1.1.2.1"/>
                                <code value="10219000"/>
                                <display value="Tablet"/>
                            </coding>
                        </form>
                        <amount>
                            <numerator>
                                <value value="30"/>
                                <unit value="Stk"/>
                                <system value="http://unitsofmeasure.org"/>
                                <code value="U{PIECE(S)}"/>
                            </numerator>
                            <denominator>
                                <value value="1"/>
                                <unit value="Package"/>
                                <system value="http://unitsofmeasure.org"/>
                                <code value="{Package}"/>
                            </denominator>
                        </amount>
                        <ingredient>
                            <itemCodeableConcept>
                                <coding>
                                    <system value="http://snomed.info/sct"/>
                                    <code value="372826007"/>
                                    <display value="Metoprolol (substance)"/>
                                </coding>
                                <text value="Metoprolol"/>
                            </itemCodeableConcept>
                            <strength>
                                <numerator>
                                    <value value="50"/>
                                    <unit value="mg"/>
                                    <system value="http://unitsofmeasure.org"/>
                                    <code value="mg"/>
                                </numerator>
                                <denominator>
                                    <value value="1"/>
                                    <unit value="Tablet"/>
                                    <system value="http://snomed.info/sct"/>
                                    <code value="732936001"/>
                                </denominator>
                            </strength>
                        </ingredient>
                    </Medication>
                </contained>
                <identifier>
                    <system value="urn:ietf:rfc:3986"/>
                    <value value="urn:uuid:17931678-20b4-11e6-b67b-9e71128cca77"/>
                </identifier>
                <status value="completed"/>
                <category>
                    <coding>
                        <system value="http://www.whocc.no/atc"/>
                        <code value="C"/>
                        <display value="Kardiovaskuläres System"/>
                    </coding>
                </category>
                <medicationReference>
                    <reference value="#med"/>
                </medicationReference>
                <subject>
                    <reference value="Patient/MonikaWegmueller"/>
                </subject>
                <informationSource>
                    <reference value="Practitioner/FamilienHausarzt"/>
                </informationSource>
                <!-- History -->
                <derivedFrom>
                    <reference value="MedicationStatement/2-3-MedStatBeloczok"/>
                </derivedFrom>
                <!--<reasonCode>
                    <text value="Bluthochdruck"/>
                </reasonCode>-->
                <!--<note>
                    <text value="-"/>
                </note>-->
                <dosage>
                    <text value="Morgens 1 und abends 1/2 Tablette nehmen"/>
                </dosage>
                <dosage>
                    <!--<extension url="http://fhir.ch/ig/ch-emed/StructureDefinition/ch-emed-ext-dosagetype">
                        <valueIdentifier>
                            <value value="1.3.6.1.4.1.19376.1.5.3.1.4.9"/>
                        </valueIdentifier>
                    </extension>-->
                    <sequence value="1"/>
                    <timing>
                        <repeat>
                            <boundsPeriod>
                                <start value="2012-02-04"/>
                            </boundsPeriod>
                            <when value="ACM"/>
                        </repeat>
                    </timing>
                    <route>
                        <coding>
                            <system value="urn:oid:0.4.0.127.0.16.1.1.2.1"/>
                            <code value="20053000"/>
                            <display value="Oral use"/>
                        </coding>
                    </route>
                    <doseAndRate>
                        <doseQuantity>
                            <value value="1"/>
                            <unit value="Tablette" />
                            <system value="http://snomed.info/sct"/>
                            <code value="732936001"/>
                        </doseQuantity>
                    </doseAndRate>
                </dosage>
                <dosage>
                    <!--<extension url="http://fhir.ch/ig/ch-emed/StructureDefinition/ch-emed-ext-dosagetype">
                        <valueIdentifier>
                            <value value="1.3.6.1.4.1.19376.1.5.3.1.4.9"/>
                        </valueIdentifier>
                    </extension>-->
                    <sequence value="2"/>
                    <timing>
                        <repeat>
                            <boundsPeriod>
                                <start value="2012-02-04"/>
                            </boundsPeriod>
                            <when value="ACV"/>
                        </repeat>
                    </timing>
                    <route>
                        <coding>
                            <system value="urn:oid:0.4.0.127.0.16.1.1.2.1"/>
                            <code value="20053000"/>
                            <display value="Oral use"/>
                        </coding>
                    </route>
                    <doseAndRate>
                        <doseQuantity>
                            <value value="0.5"/>
                            <unit value="Tablette" />
                            <system value="http://snomed.info/sct"/>
                            <code value="732936001"/>
                        </doseQuantity>
                    </doseAndRate>
                </dosage>
            </MedicationStatement>
        </resource>
    </entry>
</Bundle>