<Bundle xmlns="http://hl7.org/fhir">
    <id value="NorvascCard-ConsolidatedMedicationCard"/>
    <meta>
        <profile value="http://chmed20af.emediplan.ch/fhir/StructureDefinition/chmed20af-analyzer-bundle"/>
    </meta>
    <identifier>
        <system value="http://emediplan.ch/chmed20af/id"/>
        <value value="26d3dff7-ab05-4737-a49c-5eccd3357779"/>
    </identifier>
    <type value="document"/>
    <timestamp value="2020-04-03T12:00:00.000+00:00"/>
    <entry>
        <fullUrl value="http://test.fhir.ch/r4/Composition/2-7-Analyzer"/>
        <resource>
            <Composition>
                <id value="2-7-Analyzer"/>
                <meta>
                    <profile value="http://chmed20af.emediplan.ch/fhir/StructureDefinition/chmed20af-analyzer-composition"/>
                </meta>
                <status value="final"/>
                <type>
                    <coding>
                        <system value="http://snomed.info/sct"/>
                        <code value="721912009"/>
                        <display value="Medication summary document (record artifact)"/>
                    </coding>
                </type>
                <subject>
                    <reference value="Patient/MonikaWegmueller"/>
                </subject>
                <date value="2020-04-03T12:00:00.000+00:00"/>
                <author>
                    <reference value="Device/Analyzer"/>
                </author>
                <title value="Medikationsplan"/>
                <section>
                    <entry>
                        <reference value="MedicationStatement/2-7-MedStatNorvasc-Analyzer"/>
                    </entry>
                </section>
            </Composition>
        </resource>
    </entry>
    <entry>
        <fullUrl value="http://test.fhir.ch/r4/Patient/MonikaWegmueller"/>
        <resource>
            <Patient>
                <id value="MonikaWegmueller"/>
                <meta>
                    <profile value="http://chmed20af.emediplan.ch/fhir/StructureDefinition/chmed20af-analyzer-patient"/>
                </meta>
                <identifier>
                    <type>
                        <coding>
                            <system value="http://terminology.hl7.org/CodeSystem/v2-0203"/>
                            <code value="MR"/>
                        </coding>
                    </type>
                    <system value="urn:oid:2.999"/>
                    <value value="11111111"/>
                </identifier>
                <name>
                    <family value="Wegmüller"/>
                    <given value="Monika"/>
                </name>
                <gender value="female"/>
                <birthDate value="1943-05-15"/>
                <address>
                    <line value="Wiesenstr. 12"/>
                    <city value="Zürich"/>
                    <postalCode value="8003"/>
                    <country value="CH"/>
                </address>
            </Patient>
        </resource>
    </entry>
    <entry>
        <fullUrl value="http://test.fhir.ch/r4/Practitioner/FamilienHausarzt"/>
        <resource>
            <Practitioner>
                <id value="FamilienHausarzt"/>
                <meta>
                    <profile value="http://chmed20af.emediplan.ch/fhir/StructureDefinition/chmed20af-analyzer-practitioner"/>
                </meta>
                <identifier>
                    <system value="urn:oid:2.51.1.3"/>
                    <value value="7601000234438"/>
                </identifier>
                <name>
                    <family value="Hausarzt"/>
                    <given value="Familien"/>
                </name>
            </Practitioner>
        </resource>
    </entry>
    <entry>
        <fullUrl value="http://test.fhir.ch/r4/Device/Analyzer"/>
        <resource>
            <Device>
                <id value="Analyzer"/>
                <meta>
                    <profile value="http://hl7.org/fhir/StructureDefinition/Device"/>
                </meta>
                <deviceName>
                    <name value="Documedis Medical Data Analyzer CE"/>
                    <type value="user-friendly-name"/>
                </deviceName>
                <version>
                    <value value="1.0.0.0"/>
                </version>
            </Device>
        </resource>
    </entry>

    <!-- Section entry: MedicationStatement -->
    <entry>
        <fullUrl value="http://test.fhir.ch/r4/MedicationStatement/2-7-MedStatNorvasc-Analyzer"/>
        <resource>
            <MedicationStatement>
                <id value="2-7-MedStatNorvasc-Analyzer"/>
                <meta>
                    <profile value="http://chmed20af.emediplan.ch/fhir/StructureDefinition/chmed20af-analyzer-medicationstatement"/>
                </meta>
                <contained>
                    <Medication>
                        <id value="med"/>
                        <code>
                            <coding>
                                <system value="urn:oid:2.51.1.1"/>
                                <code value="7680500440334"/>
                                <display value="NORVASC Tabl 10 mg"/>
                            </coding>
                            <text value="NORVASC Tabl 10 mg"/>
                        </code>
                        <form>
                            <coding>
                                <system value="urn:oid:0.4.0.127.0.16.1.1.2.1"/>
                                <code value="10219000"/>
                                <display value="Tablet"/>
                            </coding>
                        </form>
                        <amount>
                            <numerator>
                                <value value="30"/>
                            </numerator>
                            <denominator>
                                <value value="1"/>
                            </denominator>
                        </amount>
                        <ingredient>
                            <itemCodeableConcept>
                                <coding>
                                    <system value="http://snomed.info/sct"/>
                                    <code value="386864001"/>
                                    <display value="Amlodipine (substance)"/>
                                </coding>
                                <text value="Amlodipine"/>
                            </itemCodeableConcept>
                            <strength>
                                <numerator>
                                    <value value="10"/>
                                    <unit value="mg"/>
                                </numerator>
                                <denominator>
                                    <value value="1"/>
                                </denominator>
                            </strength>
                        </ingredient>
                    </Medication>
                </contained>
                <status value="completed"/>
                <category>
                    <coding>
                        <system value="http://www.whocc.no/atc"/>
                        <code value="C"/>
                        <display value="Kardiovaskuläres System"/>
                    </coding>
                </category>
                <medicationReference>
                    <reference value="#med"/>
                </medicationReference>
                <subject>
                    <reference value="Patient/MonikaWegmueller"/>
                </subject>
                <informationSource>
                    <reference value="Practitioner/FamilienHausarzt"/>
                </informationSource>
                <!-- History -->
                <derivedFrom>
                    <reference value="MedicationStatement/2-5-MedStatNorvasc-Analyzer"/>
                    <!-- 2-5 Entscheid (Norvasc) -->
                </derivedFrom>
                <derivedFrom>
                    <reference value="Observation/2-6-History"/>
                    <!-- Aenderung von Entscheid zu Rezept (Norvasc) -->
                </derivedFrom>
                <derivedFrom>
                    <reference value="MedicationRequest/2-6-MedReqNorvasc-Analyzer"/>
                    <!-- 2-6 Rezept (Norvasc) -->
                </derivedFrom>
                <derivedFrom>
                    <reference value="Observation/2-7-Norvasc-History"/>
                    <!-- 2-7 Erstellung Medication Card -->
                </derivedFrom>
                <derivedFrom>
                    <reference value="MedicationStatement/2-7-MedStatNorvascFromCard-Analyzer"/>
                    <!-- 2-7 Erstellung Medication Card -->
                </derivedFrom>
                <!--<reasonCode>
                    <text value="Bluthochdruck"/>
                </reasonCode>-->
                <!--<note>
                    <text value="-"/>
                </note>-->
                <dosage>
                    <!--<extension url="http://fhir.ch/ig/ch-emed/StructureDefinition/ch-emed-ext-dosagetype">
                        <valueIdentifier>
                            <value value="1.3.6.1.4.1.19376.1.5.3.1.4.7.1"/>
                        </valueIdentifier>
                    </extension>-->
                    <timing>
                        <repeat>
                            <boundsPeriod>
                                <start value="2012-02-04"/>
                            </boundsPeriod>
                            <when value="ACM"/>
                            <when value="ACV"/>
                        </repeat>
                    </timing>
                    <route>
                        <coding>
                            <system value="urn:oid:0.4.0.127.0.16.1.1.2.1"/>
                            <code value="20053000"/>
                            <display value="Oral use"/>
                        </coding>
                    </route>
                    <doseAndRate>
                        <doseQuantity>
                            <value value="1"/>
                        </doseQuantity>
                    </doseAndRate>
                </dosage>
                <dosage>
                    <text value="Morgens und abends je 1 Tablette nehmen"/>
                </dosage>
            </MedicationStatement>
        </resource>
    </entry>

    <!-- Section entry: Reference from MedicationStatement.derivedFrom (History) -->
    <entry>
        <fullUrl value="http://test.fhir.ch/r4/MedicationStatement/2-5-MedStatNorvasc-Analyzer"/>
        <resource>
            <MedicationStatement>
                <id value="2-5-MedStatNorvasc-Analyzer"/>
                <meta>
                    <profile value="http://chmed20af.emediplan.ch/fhir/StructureDefinition/chmed20af-analyzer-medicationstatement"/>
                </meta>
                <contained>
                    <Medication>
                        <id value="med"/>
                        <code>
                            <coding>
                                <system value="urn:oid:2.51.1.1"/>
                                <code value="7680500440334"/>
                                <display value="NORVASC Tabl 10 mg"/>
                            </coding>
                            <text value="NORVASC Tabl 10 mg"/>
                        </code>
                        <form>
                            <coding>
                                <system value="urn:oid:0.4.0.127.0.16.1.1.2.1"/>
                                <code value="10219000"/>
                                <display value="Tablet"/>
                            </coding>
                        </form>
                        <amount>
                            <numerator>
                                <value value="30"/>
                            </numerator>
                            <denominator>
                                <value value="1"/>
                            </denominator>
                        </amount>
                        <ingredient>
                            <itemCodeableConcept>
                                <coding>
                                    <system value="http://snomed.info/sct"/>
                                    <code value="386864001"/>
                                    <display value="Amlodipine (substance)"/>
                                </coding>
                                <text value="Amlodipine"/>
                            </itemCodeableConcept>
                            <strength>
                                <numerator>
                                    <value value="10"/>
                                    <unit value="mg"/>
                                </numerator>
                                <denominator>
                                    <value value="1"/>
                                </denominator>
                            </strength>
                        </ingredient>
                    </Medication>
                </contained>
                <extension url="http://chmed20af.emediplan.ch/fhir/StructureDefinition/chmed20af-infoinputdocument">
                    <extension url="http://chmed20af.emediplan.ch/fhir/StructureDefinition/chmed20af-inputdocumentsource">
                        <valueString value="EPD"/>
                    </extension>
                    <extension url="http://chmed20af.emediplan.ch/fhir/StructureDefinition/chmed20af-inputdocumenttype">
                        <valueCodeableConcept>
                            <coding>
                                <system value="http://loinc.org"/>
                                <code value="77603-9"/>
                                <display value="Medication treatment plan.extended"/>
                            </coding>
                        </valueCodeableConcept>
                    </extension>
                    <extension url="http://chmed20af.emediplan.ch/fhir/StructureDefinition/chmed20af-inputdocumentdate">
                        <valueDateTime value="2012-02-04T14:00:00+01:00"/>
                    </extension>
                </extension>
                <status value="completed"/>
                <category>
                    <coding>
                        <system value="http://www.whocc.no/atc"/>
                        <code value="C"/>
                        <display value="Kardiovaskuläres System"/>
                    </coding>
                </category>
                <medicationReference>
                    <reference value="#med"/>
                </medicationReference>
                <subject>
                    <reference value="Patient/MonikaWegmueller"/>
                </subject>
                <informationSource>
                    <reference value="Practitioner/FamilienHausarzt"/>
                </informationSource>
                <reasonCode>
                    <text value="Bluthochdruck"/>
                </reasonCode>
                <note>
                    <text value="-"/>
                </note>
                <dosage>
                    <extension url="http://fhir.ch/ig/ch-emed/StructureDefinition/ch-emed-ext-dosagetype">
                        <valueIdentifier>
                            <value value="1.3.6.1.4.1.19376.1.5.3.1.4.7.1"/>
                        </valueIdentifier>
                    </extension>
                    <timing>
                        <repeat>
                            <boundsPeriod>
                                <start value="2012-02-04"/>
                            </boundsPeriod>
                            <when value="ACM"/>
                            <when value="ACV"/>
                        </repeat>
                    </timing>
                    <route>
                        <coding>
                            <system value="urn:oid:0.4.0.127.0.16.1.1.2.1"/>
                            <code value="20053000"/>
                            <display value="Oral use"/>
                        </coding>
                    </route>
                </dosage>
                <dosage>
                    <text value="Morgens und abends je 1 Tablette nehmen"/>
                </dosage>
            </MedicationStatement>
        </resource>
    </entry>

    <!-- Section entry: Reference from MedicationStatement.derivedFrom (History) -->
    <entry>
        <fullUrl value="http://test.fhir.ch/r4/Observation/2-6-History"/>
        <resource>
            <Observation>
                <id value="2-6-History"/>
                <meta>
                    <profile value="http://chmed20af.emediplan.ch/fhir/StructureDefinition/chmed20af-analyzer-observationhistory"/>
                </meta>
                <status value="final"/>
                <code>
                    <coding>
                        <system value="urn:oid:1.3.6.1.4.1.19376.1.9.2.1"/>
                        <code value="OK"/>
                    </coding>
                </code>
                <valueCodeableConcept>
                    <coding>
                        <system value="http://chmed20af.emediplan.ch/fhir/CodeSystem/chmed20af-codesystem-history-changes"/>
                        <code value="sameMedication"/>
                    </coding>
                </valueCodeableConcept>
            </Observation>
        </resource>
    </entry>

    <!-- Section entry: Reference from MedicationStatement.derivedFrom (History) -->
    <entry>
        <fullUrl value="http://test.fhir.ch/r4/MedicationRequest/2-6-MedReqNorvasc-Analyzer"/>
        <resource>
            <MedicationRequest>
                <id value="2-6-MedReqNorvasc-Analyzer"/>
                <meta>
                    <profile value="http://chmed20af.emediplan.ch/fhir/StructureDefinition/chmed20af-analyzer-medicationrequest"/>
                </meta>
                <contained>
                    <Medication>
                        <id value="med"/>
                        <code>
                            <coding>
                                <system value="urn:oid:2.51.1.1"/>
                                <code value="7680500440334"/>
                                <display value="NORVASC Tabl 10 mg"/>
                            </coding>
                            <text value="NORVASC Tabl 10 mg"/>
                        </code>
                        <form>
                            <coding>
                                <system value="urn:oid:0.4.0.127.0.16.1.1.2.1"/>
                                <code value="10219000"/>
                                <display value="Tablet"/>
                            </coding>
                        </form>
                        <amount>
                            <numerator>
                                <value value="30"/>
                            </numerator>
                            <denominator>
                                <value value="1"/>
                            </denominator>
                        </amount>
                        <ingredient>
                            <itemCodeableConcept>
                                <coding>
                                    <system value="http://snomed.info/sct"/>
                                    <code value="386864001"/>
                                    <display value="Amlodipine (substance)"/>
                                </coding>
                                <text value="Amlodipine"/>
                            </itemCodeableConcept>
                            <strength>
                                <numerator>
                                    <value value="10"/>
                                    <unit value="mg"/>
                                </numerator>
                                <denominator>
                                    <value value="1"/>
                                </denominator>
                            </strength>
                        </ingredient>
                    </Medication>
                </contained>
                <extension url="http://chmed20af.emediplan.ch/fhir/StructureDefinition/chmed20af-infoinputdocument">
                    <extension url="http://chmed20af.emediplan.ch/fhir/StructureDefinition/chmed20af-inputdocumentsource">
                        <valueString value="EPD"/>
                    </extension>
                    <extension url="http://chmed20af.emediplan.ch/fhir/StructureDefinition/chmed20af-inputdocumenttype">
                        <valueCodeableConcept>
                            <coding>
                                <system value="http://loinc.org"/>
                                <code value="57833-6"/>
                                <display value="Prescription for medication"/>
                            </coding>
                        </valueCodeableConcept>
                    </extension>
                    <extension url="http://chmed20af.emediplan.ch/fhir/StructureDefinition/chmed20af-inputdocumentdate">
                        <valueDateTime value="2012-02-04T14:00:00+01:00"/>
                    </extension>
                </extension>
                <extension url="http://fhir.ch/ig/ch-emed/StructureDefinition/ch-emed-ext-treatmentplan">
                    <extension url="id">
                        <valueIdentifier>
                            <system value="urn:ietf:rfc:3986"/>
                            <value value="urn:uuid:5712fffe-20c6-11e6-b67b-9e71128cae77"/>
                        </valueIdentifier>
                    </extension>
                    <extension url="externalDocumentId">
                        <valueIdentifier>
                            <system value="urn:ietf:rfc:3986"/>
                            <value value="urn:uuid:5712fffe-20c6-11e6-b67b-9e71128cae77"/>
                        </valueIdentifier>
                    </extension>
                </extension>
                <status value="completed"/>
                <intent value="order"/>
                <medicationReference>
                    <reference value="#med"/>
                </medicationReference>
                <subject>
                    <reference value="Patient/MonikaWegmueller"/>
                </subject>
                <performer>
                    <reference value="Practitioner/FamilienHausarzt"/>
                </performer>
                <reasonCode>
                    <text value="-"/>
                </reasonCode>
                <note>
                    <text value="-"/>
                </note>
                <dosageInstruction>
                    <extension url="http://fhir.ch/ig/ch-emed/StructureDefinition/ch-emed-ext-dosagetype">
                        <valueIdentifier>
                            <value value="1.3.6.1.4.1.19376.1.5.3.1.4.7.1"/>
                        </valueIdentifier>
                    </extension>
                    <timing>
                        <repeat>
                            <boundsPeriod>
                                <start value="2012-02-04"/>
                            </boundsPeriod>
                            <when value="ACM"/>
                            <when value="ACV"/>
                        </repeat>
                    </timing>
                    <route>
                        <coding>
                            <system value="urn:oid:0.4.0.127.0.16.1.1.2.1"/>
                            <code value="20053000"/>
                            <display value="Oral use"/>
                        </coding>
                    </route>
                    <doseAndRate>
                        <doseQuantity>
                            <value value="1"/>
                        </doseQuantity>
                    </doseAndRate>
                </dosageInstruction>
                <dosageInstruction>
                    <text value="Morgens und abends je 1 Tablette nehmen"/>
                </dosageInstruction>
                <dispenseRequest>
                    <numberOfRepeatsAllowed value="2"/>
                    <quantity>
                        <value value="1"/>
                    </quantity>
                </dispenseRequest>
                <!-- substitution just as test case -->
                <substitution>
                    <allowedCodeableConcept>
                        <coding>
                            <system value="http://terminology.hl7.org/CodeSystem/v3-substanceAdminSubstitution"/>
                            <code value="E"/>
                            <display value="equivalent"/>
                        </coding>
                    </allowedCodeableConcept>
                </substitution>
            </MedicationRequest>
        </resource>
    </entry>

    <!-- Section entry: Reference from MedicationStatement.derivedFrom (History) -->
    <entry>
        <fullUrl value="http://test.fhir.ch/r4/Observation/2-7-Norvasc-History"/>
        <resource>
            <Observation>
                <id value="2-7-Norvasc-History"/>
                <meta>
                    <profile value="http://chmed20af.emediplan.ch/fhir/StructureDefinition/chmed20af-analyzer-observationhistory"/>
                </meta>
                <status value="final"/>
                <code>
                    <coding>
                        <system value="urn:oid:1.3.6.1.4.1.19376.1.9.2.1"/>
                        <code value="OK"/>
                    </coding>
                </code>
                <valueCodeableConcept>
                    <coding>
                        <system value="http://chmed20af.emediplan.ch/fhir/CodeSystem/chmed20af-codesystem-history-changes"/>
                        <code value="sameMedication"/>
                    </coding>
                </valueCodeableConcept>
            </Observation>
        </resource>
    </entry>

    <!-- Section entry: Reference from MedicationStatement.derivedFrom (History) -->
    <entry>
        <fullUrl value="http://test.fhir.ch/r4/MedicationStatement/2-7-MedStatNorvascFromCard-Analyzer"/>
        <resource>
            <MedicationStatement>
                <id value="2-7-MedStatNorvascFromCard-Analyzer"/>
                <meta>
                    <profile value="http://chmed20af.emediplan.ch/fhir/StructureDefinition/chmed20af-analyzer-medicationstatement"/>
                </meta>
                <contained>
                    <Medication>
                        <id value="med"/>
                        <code>
                            <coding>
                                <system value="urn:oid:2.51.1.1"/>
                                <code value="7680500440334"/>
                                <display value="NORVASC Tabl 10 mg"/>
                            </coding>
                            <text value="NORVASC Tabl 10 mg"/>
                        </code>
                        <form>
                            <coding>
                                <system value="urn:oid:0.4.0.127.0.16.1.1.2.1"/>
                                <code value="10219000"/>
                                <display value="Tablet"/>
                            </coding>
                        </form>
                        <amount>
                            <numerator>
                                <value value="30"/>
                            </numerator>
                            <denominator>
                                <value value="1"/>
                            </denominator>
                        </amount>
                        <ingredient>
                            <itemCodeableConcept>
                                <coding>
                                    <system value="http://snomed.info/sct"/>
                                    <code value="386864001"/>
                                    <display value="Amlodipine (substance)"/>
                                </coding>
                                <text value="Amlodipine"/>
                            </itemCodeableConcept>
                            <strength>
                                <numerator>
                                    <value value="10"/>
                                    <unit value="mg"/>
                                </numerator>
                                <denominator>
                                    <value value="1"/>
                                </denominator>
                            </strength>
                        </ingredient>
                    </Medication>
                </contained>
                <extension url="http://chmed20af.emediplan.ch/fhir/StructureDefinition/chmed20af-infoinputdocument">
                    <extension url="http://chmed20af.emediplan.ch/fhir/StructureDefinition/chmed20af-inputdocumentsource">
                        <valueString value="EPD"/>
                    </extension>
                    <extension url="http://chmed20af.emediplan.ch/fhir/StructureDefinition/chmed20af-inputdocumenttype">
                        <valueCodeableConcept>
                            <coding>
                                <system value="http://loinc.org"/>
                                <code value="56445-0"/>
                                <display value="Medication summary"/>
                            </coding>
                        </valueCodeableConcept>
                    </extension>
                    <extension url="http://chmed20af.emediplan.ch/fhir/StructureDefinition/chmed20af-inputdocumentdate">
                        <valueDateTime value="2012-02-04T14:05:00+01:00"/>
                    </extension>
                </extension>
                <extension url="http://fhir.ch/ig/ch-emed/StructureDefinition/ch-emed-ext-treatmentplan">
                    <extension url="id">
                        <valueIdentifier>
                            <system value="urn:ietf:rfc:3986"/>
                            <value value="urn:uuid:5712fffe-20c6-11e6-b67b-9e71128cae77"/>
                        </valueIdentifier>
                    </extension>
                    <extension url="externalDocumentId">
                        <valueIdentifier>
                            <system value="urn:ietf:rfc:3986"/>
                            <value value="urn:uuid:5712fffe-20c6-11e6-b67b-9e71128cae77"/>
                        </valueIdentifier>
                    </extension>
                </extension>
                <status value="completed"/>
                <category>
                    <coding>
                        <system value="http://www.whocc.no/atc"/>
                        <code value="C"/>
                        <display value="Kardiovaskuläres System"/>
                    </coding>
                </category>
                <medicationReference>
                    <reference value="#med"/>
                </medicationReference>
                <subject>
                    <reference value="Patient/MonikaWegmueller"/>
                </subject>
                <informationSource>
                    <reference value="Practitioner/FamilienHausarzt"/>
                </informationSource>
                <reasonCode>
                    <text value="Bluthochdruck"/>
                </reasonCode>
                <note>
                    <text value="-"/>
                </note>
                <dosage>
                    <extension url="http://fhir.ch/ig/ch-emed/StructureDefinition/ch-emed-ext-dosagetype">
                        <valueIdentifier>
                            <value value="1.3.6.1.4.1.19376.1.5.3.1.4.7.1"/>
                        </valueIdentifier>
                    </extension>
                    <timing>
                        <repeat>
                            <boundsPeriod>
                                <start value="2012-02-04"/>
                            </boundsPeriod>
                            <when value="ACM"/>
                            <when value="ACV"/>
                        </repeat>
                    </timing>
                    <route>
                        <coding>
                            <system value="urn:oid:0.4.0.127.0.16.1.1.2.1"/>
                            <code value="20053000"/>
                            <display value="Oral use"/>
                        </coding>
                    </route>
                    <doseAndRate>
                        <doseQuantity>
                            <value value="1"/>
                        </doseQuantity>
                    </doseAndRate>
                </dosage>
                <dosage>
                    <text value="Morgens und abends je 1 Tablette nehmen"/>
                </dosage>
            </MedicationStatement>
        </resource>
    </entry>
</Bundle>